ID,filename,session,trial,visStimLeft,visStimRight,correctKey,leftCorrect,rightCorrect,secondStim,mod2Type,mod2Stim,frequency,rewardAccurate,stimPairLeft,stimPairRight,pCorrectLeft,pCorrectRight,key,reactionTime,choiceLeft,choiceRight,choiceAccurate,reward,chosenPair,otherPair,triplet,surprise,0A belief,1A belief,2A belief,3A belief,0B belief,1B belief,2B belief,3B belief,0C belief,1C belief,2C belief,3C belief,0D belief,1D belief,2D belief,3D belief,beliefPairNorm,beliefOtherPairNorm,beliefPair,beliefOtherPair,lik,corrLik,rewardPE,update2,fitCBCsimpleRW_CBCdriftDiffusionLR_pwBelief_startBelief,fitCBCsimpleRW_CBCdriftDiffusionLR_pwBelief_alpha1,fitCBCsimpleRW_CBCdriftDiffusionLR_pwBelief_nonDecisionTime,fitCBCsimpleRW_CBCdriftDiffusionLR_pwBelief_weight,fitCBCsimpleRW_CBCdriftDiffusionLR_pwBelief_startingBoundary,fitCBCsimpleRW_CBCdriftDiffusionLR_pwBelief_startingPoint,fit_CBCsimpleRW_CBCdriftDiffusionLR_pwBelief_NLL
CBC_1064,CBC_1064_MSI_TV_v3_Vset4_Tset1_2024-01-28_09h51.20.752.csv,1,1,0,1,b,1,0,2,tac,A,63,1,0A,1A,1,0,b,2.80129780000061,1,0,1,1,0A,1A,A01,2.77258872223978,0.5,0.5,0.5,0.5,0.5,0.5,0.5,0.5,0.5,0.5,0.5,0.5,0.5,0.5,0.5,0.5,0.5,0.5,0.5,0.5,0.135095328591085,0.500207756158326,0.5,0.00187528610170196,0.5,0.00375057220340391,1.08305196334786,13.3993747634486,2.72721833437933,0.5,79.4336104963467
CBC_1064,CBC_1064_MSI_TV_v3_Vset4_Tset1_2024-01-28_09h51.20.752.csv,1,2,2,3,z,0,1,0,tac,D,63,1,2D,3D,0,1,z,1.63326540000071,0,1,1,1,3D,2D,D23,2.83321334405622,0.501875286101702,0.5,0.5,0.5,0.5,0.5,0.5,0.5,0.5,0.5,0.5,0.5,0.5,0.5,0.5,0.5,0.5,0.5,0.5,0.5,0.246501409667257,0.500991115340097,0.5,0.00187528610170196,0.5,0.00375057220340391,1.08305196334786,13.3993747634486,2.72721833437933,0.5,79.4336104963467
CBC_1064,CBC_1064_MSI_TV_v3_Vset4_Tset1_2024-01-28_09h51.20.752.csv,1,3,0,2,z,0,1,1,tac,C,27,1,0C,2C,0,1,b,2.39908230000037,1,0,0,0,0C,2C,C02,2.89037175789616,0.501875286101702,0.5,0.5,0.5,0.5,0.5,0.5,0.5,0.5,0.5,0.5,0.5,0.5,0.5,0.5,0.501875286101702,0.5,0.5,0.5,0.5,0.175878418847874,0.499908068055322,-0.5,-0.00187528610170196,0.5,0.00375057220340391,1.08305196334786,13.3993747634486,2.72721833437933,0.5,79.4336104963467
CBC_1064,CBC_1064_MSI_TV_v3_Vset4_Tset1_2024-01-28_09h51.20.752.csv,1,4,0,1,b,1,0,2,tac,A,63,1,0A,1A,1,0,b,2.27949330000047,1,0,1,1,0A,1A,A01,2.2512917986065,0.501875286101702,0.5,0.5,0.5,0.5,0.5,0.5,0.5,0.498124713898298,0.5,0.5,0.5,0.5,0.5,0.5,0.501875286101702,0.501875286101702,0.498124713898298,0.501875286101702,0.5,0.202482580230097,0.532538558084894,0.498124713898298,0.00186825270577548,0.5,0.00375057220340391,1.08305196334786,13.3993747634486,2.72721833437933,0.5,79.4336104963467
CBC_1064,CBC_1064_MSI_TV_v3_Vset4_Tset1_2024-01-28_09h51.20.752.csv,1,5,1,3,b,1,0,3,tac,B,27,1,1B,3B,1,0,b,2.98004000000037,1,0,1,1,1B,3B,B13,2.99573227355399,0.503743538807477,0.5,0.5,0.5,0.5,0.5,0.5,0.5,0.498124713898298,0.5,0.5,0.5,0.5,0.5,0.5,0.501875286101702,0.5,0.5,0.5,0.5,0.120128559827009,0.500694742270151,0.5,0.00187528610170196,0.5,0.00375057220340391,1.08305196334786,13.3993747634486,2.72721833437933,0.5,79.4336104963467
CBC_1064,CBC_1064_MSI_TV_v3_Vset4_Tset1_2024-01-28_09h51.20.752.csv,1,6,3,2,z,0,1,1,tac,C,63,1,3C,2C,0,1,b,2.4762724000002,1,0,0,0,3C,2C,C32,3.04452243772342,0.503743538807477,0.5,0.5,0.5,0.5,0.501875286101702,0.5,0.5,0.498124713898298,0.5,0.5,0.5,0.5,0.5,0.5,0.501875286101702,0.5,0.5,0.5,0.5,0.167749655651292,0.501388865641171,-0.5,-0.00187528610170196,0.5,0.00375057220340391,1.08305196334786,13.3993747634486,2.72721833437933,0.5,79.4336104963467
CBC_1064,CBC_1064_MSI_TV_v3_Vset4_Tset1_2024-01-28_09h51.20.752.csv,1,7,3,2,b,1,0,0,tac,D,63,1,3D,2D,1,0,b,2.31592280000041,1,0,1,1,3D,2D,D32,3.09104245335832,0.503743538807477,0.5,0.5,0.5,0.5,0.501875286101702,0.5,0.5,0.498124713898298,0.5,0.5,0.498124713898298,0.5,0.5,0.5,0.501875286101702,0.501875286101702,0.498124713898298,0.501875286101702,0.5,0.198697760470782,0.534840395569856,0.498124713898298,0.00186825270577548,0.5,0.00375057220340391,1.08305196334786,13.3993747634486,2.72721833437933,0.5,79.4336104963467
CBC_1064,CBC_1064_MSI_TV_v3_Vset4_Tset1_2024-01-28_09h51.20.752.csv,1,8,0,1,z,0,1,3,tac,B,63,1,0B,1B,0,1,z,2.77802550000069,0,1,1,1,1B,0B,B01,3.13549421592915,0.503743538807477,0.5,0.5,0.5,0.5,0.501875286101702,0.5,0.5,0.498124713898298,0.5,0.5,0.498124713898298,0.5,0.5,0.5,0.503743538807477,0.501875286101702,0.498124713898298,0.501875286101702,0.5,0.146343965782385,0.533472722783251,0.498124713898298,0.00186825270577548,0.5,0.00375057220340391,1.08305196334786,13.3993747634486,2.72721833437933,0.5,79.4336104963467
CBC_1064,CBC_1064_MSI_TV_v3_Vset4_Tset1_2024-01-28_09h51.20.752.csv,1,9,2,0,z,0,1,2,tac,A,27,1,2A,0A,0,1,b,2.54355759999999,1,0,0,0,2A,0A,A20,3.17805383034795,0.503743538807477,0.5,0.5,0.5,0.5,0.503743538807477,0.5,0.5,0.498124713898298,0.5,0.5,0.498124713898298,0.5,0.5,0.5,0.503743538807477,0.496256461192523,0.503743538807477,0.5,0.503743538807477,0.138467849163802,0.43165946456212,-0.5,-0.00187528610170196,0.5,0.00375057220340391,1.08305196334786,13.3993747634486,2.72721833437933,0.5,79.4336104963467
CBC_1064,CBC_1064_MSI_TV_v3_Vset4_Tset1_2024-01-28_09h51.20.752.csv,1,10,3,0,b,1,0,0,tac,D,9,1,3D,0D,1,0,z,2.25042350000058,0,1,0,0,0D,3D,D30,3.2188758248682,0.503743538807477,0.5,0.498124713898298,0.5,0.5,0.503743538807477,0.5,0.5,0.498124713898298,0.5,0.5,0.498124713898298,0.5,0.5,0.5,0.503743538807477,0.496256461192523,0.503743538807477,0.5,0.503743538807477,0.167812828358828,0.432142924703878,-0.5,-0.00187528610170196,0.5,0.00375057220340391,1.08305196334786,13.3993747634486,2.72721833437933,0.5,79.4336104963467
CBC_1064,CBC_1064_MSI_TV_v3_Vset4_Tset1_2024-01-28_09h51.20.752.csv,1,11,2,3,b,1,0,1,tac,C,63,1,2C,3C,1,0,b,2.92855380000037,1,0,1,1,2C,3C,C23,3.25809653802148,0.503743538807477,0.5,0.498124713898298,0.5,0.5,0.503743538807477,0.5,0.5,0.498124713898298,0.5,0.5,0.498124713898298,0.498124713898298,0.5,0.5,0.503743538807477,0.501875286101702,0.498124713898298,0.5,0.498124713898298,0.132616342933245,0.53419364657029,0.5,0.00187528610170196,0.5,0.00375057220340391,1.08305196334786,13.3993747634486,2.72721833437933,0.5,79.4336104963467
CBC_1064,CBC_1064_MSI_TV_v3_Vset4_Tset1_2024-01-28_09h51.20.752.csv,1,12,0,1,z,0,1,3,tac,B,63,1,0B,1B,0,1,z,2.29483550000077,0,1,1,1,1B,0B,B01,2.60268968544438,0.503743538807477,0.5,0.498124713898298,0.5,0.5,0.503743538807477,0.5,0.5,0.498124713898298,0.5,0.501875286101702,0.498124713898298,0.498124713898298,0.5,0.5,0.503743538807477,0.503743538807477,0.496256461192523,0.503743538807477,0.5,0.214213405516645,0.567538729281791,0.496256461192523,0.00186124568910827,0.5,0.00375057220340391,1.08305196334786,13.3993747634486,2.72721833437933,0.5,79.4336104963467
CBC_1064,CBC_1064_MSI_TV_v3_Vset4_Tset1_2024-01-28_09h51.20.752.csv,1,13,2,3,z,0,1,0,tac,D,63,1,2D,3D,0,1,z,2.70712309999999,0,1,1,1,3D,2D,D23,2.63905732961526,0.503743538807477,0.5,0.498124713898298,0.5,0.5,0.505604784496586,0.5,0.5,0.498124713898298,0.5,0.501875286101702,0.498124713898298,0.498124713898298,0.5,0.5,0.503743538807477,0.503743538807477,0.496256461192523,0.503743538807477,0.5,0.163471291854587,0.568073778086395,0.496256461192523,0.00186124568910827,0.5,0.00375057220340391,1.08305196334786,13.3993747634486,2.72721833437933,0.5,79.4336104963467
CBC_1064,CBC_1064_MSI_TV_v3_Vset4_Tset1_2024-01-28_09h51.20.752.csv,1,14,2,3,b,1,0,1,tac,C,63,1,2C,3C,1,0,b,2.7338737,1,0,1,1,2C,3C,C23,2.67414864942653,0.503743538807477,0.5,0.498124713898298,0.5,0.5,0.505604784496586,0.5,0.5,0.498124713898298,0.5,0.501875286101702,0.498124713898298,0.498124713898298,0.5,0.5,0.505604784496586,0.503750519445628,0.496249480554372,0.501875286101702,0.498124713898298,0.160557045020976,0.567975354926289,0.498124713898298,0.00186825270577548,0.5,0.00375057220340391,1.08305196334786,13.3993747634486,2.72721833437933,0.5,79.4336104963467
CBC_1064,CBC_1064_MSI_TV_v3_Vset4_Tset1_2024-01-28_09h51.20.752.csv,1,15,3,1,z,0,1,3,tac,B,27,1,3B,1B,0,1,z,2.20909630000006,0,1,1,1,1B,3B,B31,3.40119738166216,0.503743538807477,0.5,0.498124713898298,0.5,0.5,0.505604784496586,0.5,0.5,0.498124713898298,0.5,0.503743538807477,0.498124713898298,0.498124713898298,0.5,0.5,0.505604784496586,0.505604784496586,0.494395215503414,0.505604784496586,0.5,0.240230388380873,0.600076925334387,0.494395215503414,0.00185426495276299,0.5,0.00375057220340391,1.08305196334786,13.3993747634486,2.72721833437933,0.5,79.4336104963467
CBC_1064,CBC_1064_MSI_TV_v3_Vset4_Tset1_2024-01-28_09h51.20.752.csv,1,16,0,3,b,1,0,2,tac,A,9,1,0A,3A,1,0,z,2.91330150000067,0,1,0,0,3A,0A,A03,3.43398720448515,0.503743538807477,0.5,0.498124713898298,0.5,0.5,0.507459049449349,0.5,0.5,0.498124713898298,0.5,0.503743538807477,0.498124713898298,0.498124713898298,0.5,0.5,0.505604784496586,0.496256461192523,0.503743538807477,0.5,0.503743538807477,0.108197682154144,0.431405627772915,-0.5,-0.00187528610170196,0.5,0.00375057220340391,1.08305196334786,13.3993747634486,2.72721833437933,0.5,79.4336104963467
CBC_1064,CBC_1064_MSI_TV_v3_Vset4_Tset1_2024-01-28_09h51.20.752.csv,1,17,2,3,z,0,1,0,tac,D,63,1,2D,3D,0,1,z,2.15158210000118,0,1,1,1,3D,2D,D23,2.36712361413162,0.503743538807477,0.5,0.498124713898298,0.498124713898298,0.5,0.507459049449349,0.5,0.5,0.498124713898298,0.5,0.503743538807477,0.498124713898298,0.498124713898298,0.5,0.5,0.505604784496586,0.505604784496586,0.494395215503414,0.505604784496586,0.5,0.2498915057789,0.601910596746226,0.494395215503414,0.00185426495276299,0.5,0.00375057220340391,1.08305196334786,13.3993747634486,2.72721833437933,0.5,79.4336104963467
CBC_1064,CBC_1064_MSI_TV_v3_Vset4_Tset1_2024-01-28_09h51.20.752.csv,1,18,0,2,z,0,1,1,tac,C,27,1,0C,2C,0,1,b,2.89599120000094,1,0,0,0,0C,2C,C02,2.80336038090653,0.503743538807477,0.5,0.498124713898298,0.498124713898298,0.5,0.507459049449349,0.5,0.5,0.498124713898298,0.5,0.503743538807477,0.498124713898298,0.498124713898298,0.5,0.5,0.507459049449349,0.49438133286763,0.50561866713237,0.498124713898298,0.503743538807477,0.10125168872933,0.399003671426584,-0.498124713898298,-0.00186825270577548,0.5,0.00375057220340391,1.08305196334786,13.3993747634486,2.72721833437933,0.5,79.4336104963467
CBC_1064,CBC_1064_MSI_TV_v3_Vset4_Tset1_2024-01-28_09h51.20.752.csv,1,19,0,1,b,1,0,2,tac,A,63,1,0A,1A,1,0,z,2.3418784000005,0,1,0,0,1A,0A,A01,2.42774823594805,0.503743538807477,0.5,0.498124713898298,0.498124713898298,0.5,0.507459049449349,0.5,0.5,0.496256461192523,0.5,0.503743538807477,0.498124713898298,0.498124713898298,0.5,0.5,0.507459049449349,0.496256461192523,0.503743538807477,0.5,0.503743538807477,0.158488714090511,0.432866588917598,-0.5,-0.00187528610170196,0.5,0.00375057220340391,1.08305196334786,13.3993747634486,2.72721833437933,0.5,79.4336104963467
CBC_1064,CBC_1064_MSI_TV_v3_Vset4_Tset1_2024-01-28_09h51.20.752.csv,1,20,1,0,b,1,0,3,tac,B,63,0,1B,0B,0,1,b,1.6785060000002,1,0,1,0,1B,0B,B10,3.55534806148941,0.503743538807477,0.498124713898298,0.498124713898298,0.498124713898298,0.5,0.507459049449349,0.5,0.5,0.496256461192523,0.5,0.503743538807477,0.498124713898298,0.498124713898298,0.5,0.5,0.507459049449349,0.507459049449349,0.492540950550651,0.507459049449349,0.5,0.32157743163183,0.631648722291329,-0.507459049449349,-0.0019032618052305,0.5,0.00375057220340391,1.08305196334786,13.3993747634486,2.72721833437933,0.5,79.4336104963467
CBC_1064,CBC_1064_MSI_TV_v3_Vset4_Tset1_2024-01-28_09h51.20.752.csv,1,21,3,1,b,1,0,0,tac,D,27,1,3D,1D,1,0,z,2.65859230000115,0,1,0,0,1D,3D,D31,3.58351893845611,0.503743538807477,0.498124713898298,0.498124713898298,0.498124713898298,0.5,0.505555787644118,0.5,0.5,0.496256461192523,0.5,0.503743538807477,0.498124713898298,0.498124713898298,0.5,0.5,0.507459049449349,0.492540950550651,0.507459049449349,0.5,0.507459049449349,0.109687678871102,0.367675330187457,-0.5,-0.00187528610170196,0.5,0.00375057220340391,1.08305196334786,13.3993747634486,2.72721833437933,0.5,79.4336104963467
CBC_1064,CBC_1064_MSI_TV_v3_Vset4_Tset1_2024-01-28_09h51.20.752.csv,1,22,3,2,z,0,1,1,tac,C,63,1,3C,2C,0,1,b,3.30541370000083,1,0,0,0,3C,2C,C32,2.91777073208428,0.503743538807477,0.498124713898298,0.498124713898298,0.498124713898298,0.5,0.505555787644118,0.5,0.5,0.496256461192523,0.5,0.503743538807477,0.498124713898298,0.498124713898298,0.498124713898298,0.5,0.507459049449349,0.49438133286763,0.50561866713237,0.498124713898298,0.503743538807477,0.0765553369623732,0.39765447150238,-0.498124713898298,-0.00186825270577548,0.5,0.00375057220340391,1.08305196334786,13.3993747634486,2.72721833437933,0.5,79.4336104963467
CBC_1064,CBC_1064_MSI_TV_v3_Vset4_Tset1_2024-01-28_09h51.20.752.csv,1,23,0,1,z,0,1,3,tac,B,63,1,0B,1B,0,1,b,2.44489299999987,1,0,0,0,0B,1B,B01,2.53897387105828,0.503743538807477,0.498124713898298,0.498124713898298,0.498124713898298,0.5,0.505555787644118,0.5,0.5,0.496256461192523,0.5,0.503743538807477,0.496256461192523,0.498124713898298,0.498124713898298,0.5,0.507459049449349,0.494444212355882,0.505555787644118,0.5,0.505555787644118,0.13710301784433,0.399303885677091,-0.5,-0.00187528610170196,0.5,0.00375057220340391,1.08305196334786,13.3993747634486,2.72721833437933,0.5,79.4336104963467
CBC_1064,CBC_1064_MSI_TV_v3_Vset4_Tset1_2024-01-28_09h51.20.752.csv,1,24,0,2,b,1,0,2,tac,A,27,1,0A,2A,1,0,z,2.6517617999998,0,1,0,0,2A,0A,A02,3.66356164612965,0.503743538807477,0.498124713898298,0.498124713898298,0.498124713898298,0.498124713898298,0.505555787644118,0.5,0.5,0.496256461192523,0.5,0.503743538807477,0.496256461192523,0.498124713898298,0.498124713898298,0.5,0.507459049449349,0.49438133286763,0.50561866713237,0.498124713898298,0.503743538807477,0.119437079900274,0.399376433152552,-0.498124713898298,-0.00186825270577548,0.5,0.00375057220340391,1.08305196334786,13.3993747634486,2.72721833437933,0.5,79.4336104963467
CBC_1064,CBC_1064_MSI_TV_v3_Vset4_Tset1_2024-01-28_09h51.20.752.csv,1,25,3,2,b,1,0,0,tac,D,63,1,3D,2D,1,0,z,2.67406670000037,0,1,0,0,2D,3D,D32,2.99573227355399,0.503743538807477,0.498124713898298,0.496256461192523,0.498124713898298,0.498124713898298,0.505555787644118,0.5,0.5,0.496256461192523,0.5,0.503743538807477,0.496256461192523,0.498124713898298,0.498124713898298,0.5,0.507459049449349,0.492540950550651,0.507459049449349,0.5,0.507459049449349,0.108165127806678,0.366371498872763,-0.5,-0.00187528610170196,0.5,0.00375057220340391,1.08305196334786,13.3993747634486,2.72721833437933,0.5,79.4336104963467
CBC_1064,CBC_1064_MSI_TV_v3_Vset4_Tset1_2024-01-28_09h51.20.752.csv,1,26,0,2,z,0,1,1,tac,C,27,1,0C,2C,0,1,b,2.93370589999995,1,0,0,0,0C,2C,C02,2.6149597780362,0.503743538807477,0.498124713898298,0.496256461192523,0.498124713898298,0.498124713898298,0.505555787644118,0.5,0.5,0.496256461192523,0.5,0.503743538807477,0.496256461192523,0.498124713898298,0.498124713898298,0.498124713898298,0.507459049449349,0.492513342059622,0.507486657940378,0.496256461192523,0.503743538807477,0.0904202375741853,0.365580983518639,-0.496256461192523,-0.00186124568910827,0.5,0.00375057220340391,1.08305196334786,13.3993747634486,2.72721833437933,0.5,79.4336104963467
CBC_1064,CBC_1064_MSI_TV_v3_Vset4_Tset1_2024-01-28_09h51.20.752.csv,1,27,0,1,z,0,1,3,tac,B,63,1,0B,1B,0,1,z,2.77786030000061,0,1,1,1,1B,0B,B01,2.35137525716348,0.503743538807477,0.498124713898298,0.496256461192523,0.498124713898298,0.498124713898298,0.505555787644118,0.5,0.5,0.494395215503414,0.5,0.503743538807477,0.496256461192523,0.498124713898298,0.498124713898298,0.498124713898298,0.507459049449349,0.507430764070471,0.492569235929529,0.505555787644118,0.498124713898298,0.174153899274425,0.633103564571366,0.494444212355882,0.00185444871899591,0.5,0.00375057220340391,1.08305196334786,13.3993747634486,2.72721833437933,0.5,79.4336104963467
CBC_1064,CBC_1064_MSI_TV_v3_Vset4_Tset1_2024-01-28_09h51.20.752.csv,1,28,1,0,z,0,1,2,tac,A,63,1,1A,0A,0,1,b,2.55344140000125,1,0,0,0,1A,0A,A10,3.76120011569356,0.503743538807477,0.498124713898298,0.496256461192523,0.498124713898298,0.498124713898298,0.507410236363114,0.5,0.5,0.494395215503414,0.5,0.503743538807477,0.496256461192523,0.498124713898298,0.498124713898298,0.498124713898298,0.507459049449349,0.49438133286763,0.50561866713237,0.498124713898298,0.503743538807477,0.127097928116366,0.397863610981319,-0.498124713898298,-0.00186825270577548,0.5,0.00375057220340391,1.08305196334786,13.3993747634486,2.72721833437933,0.5,79.4336104963467
CBC_1064,CBC_1064_MSI_TV_v3_Vset4_Tset1_2024-01-28_09h51.20.752.csv,1,29,2,3,b,1,0,1,tac,C,63,1,2C,3C,1,0,z,3.11152690000017,0,1,0,0,3C,2C,C23,2.68557734525015,0.503743538807477,0.496256461192523,0.496256461192523,0.498124713898298,0.498124713898298,0.507410236363114,0.5,0.5,0.494395215503414,0.5,0.503743538807477,0.496256461192523,0.498124713898298,0.498124713898298,0.498124713898298,0.507459049449349,0.492513342059622,0.507486657940378,0.496256461192523,0.503743538807477,0.0803050654633093,0.366609188532331,-0.496256461192523,-0.00186124568910827,0.5,0.00375057220340391,1.08305196334786,13.3993747634486,2.72721833437933,0.5,79.4336104963467
CBC_1064,CBC_1064_MSI_TV_v3_Vset4_Tset1_2024-01-28_09h51.20.752.csv,1,30,1,3,z,0,1,0,tac,D,27,1,1D,3D,0,1,z,3.71114190000026,0,1,1,1,3D,1D,D13,3.80666248977032,0.503743538807477,0.496256461192523,0.496256461192523,0.498124713898298,0.498124713898298,0.507410236363114,0.5,0.5,0.494395215503414,0.5,0.503743538807477,0.494395215503414,0.498124713898298,0.498124713898298,0.498124713898298,0.507459049449349,0.509333813311063,0.490666186688937,0.507459049449349,0.498124713898298,0.0956718648594946,0.664076871089026,0.492540950550651,0.00184731039817341,0.5,0.00375057220340391,1.08305196334786,13.3993747634486,2.72721833437933,0.5,79.4336104963467
CBC_1064,CBC_1064_MSI_TV_v3_Vset4_Tset1_2024-01-28_09h51.20.752.csv,1,31,0,1,b,1,0,2,tac,A,63,1,0A,1A,1,0,b,2.44258470000022,1,0,1,1,0A,1A,A01,2.4423470353692,0.503743538807477,0.496256461192523,0.496256461192523,0.498124713898298,0.498124713898298,0.507410236363114,0.5,0.5,0.494395215503414,0.5,0.503743538807477,0.494395215503414,0.498124713898298,0.498124713898298,0.498124713898298,0.509306359847522,0.507486657940378,0.492513342059622,0.503743538807477,0.496256461192523,0.21835451883016,0.632440416729948,0.496256461192523,0.00186124568910827,0.5,0.00375057220340391,1.08305196334786,13.3993747634486,2.72721833437933,0.5,79.4336104963467
CBC_1064,CBC_1064_MSI_TV_v3_Vset4_Tset1_2024-01-28_09h51.20.752.csv,1,32,2,3,z,0,1,0,tac,D,63,1,2D,3D,0,1,z,2.2233468000004,0,1,1,1,3D,2D,D23,2.46385324059017,0.505604784496586,0.496256461192523,0.496256461192523,0.498124713898298,0.498124713898298,0.507410236363114,0.5,0.5,0.494395215503414,0.5,0.503743538807477,0.494395215503414,0.498124713898298,0.498124713898298,0.498124713898298,0.509306359847522,0.511180865431467,0.488819134568533,0.509306359847522,0.498124713898298,0.281642917872142,0.694185261562135,0.490693640152478,0.00184038192714297,0.5,0.00375057220340391,1.08305196334786,13.3993747634486,2.72721833437933,0.5,79.4336104963467
CBC_1064,CBC_1064_MSI_TV_v3_Vset4_Tset1_2024-01-28_09h51.20.752.csv,1,33,1,2,b,1,0,3,tac,B,9,1,1B,2B,1,0,z,2.79474840000057,0,1,0,0,2B,1B,B12,3.87120101090789,0.505604784496586,0.496256461192523,0.496256461192523,0.498124713898298,0.498124713898298,0.507410236363114,0.5,0.5,0.494395215503414,0.5,0.503743538807477,0.494395215503414,0.498124713898298,0.498124713898298,0.498124713898298,0.511146741774665,0.492589763636886,0.507410236363114,0.5,0.507410236363114,0.0998519666677955,0.367199098824162,-0.5,-0.00187528610170196,0.5,0.00375057220340391,1.08305196334786,13.3993747634486,2.72721833437933,0.5,79.4336104963467
CBC_1064,CBC_1064_MSI_TV_v3_Vset4_Tset1_2024-01-28_09h51.20.752.csv,1,34,0,1,b,1,0,2,tac,A,63,1,0A,1A,1,0,b,2.43990630000008,1,0,1,1,0A,1A,A01,2.28238238567653,0.505604784496586,0.496256461192523,0.496256461192523,0.498124713898298,0.498124713898298,0.507410236363114,0.498124713898298,0.5,0.494395215503414,0.5,0.503743538807477,0.494395215503414,0.498124713898298,0.498124713898298,0.498124713898298,0.511146741774665,0.509347538793987,0.490652461206013,0.505604784496586,0.496256461192523,0.230628492175465,0.663473176963614,0.494395215503414,0.00185426495276299,0.5,0.00375057220340391,1.08305196334786,13.3993747634486,2.72721833437933,0.5,79.4336104963467
CBC_1064,CBC_1064_MSI_TV_v3_Vset4_Tset1_2024-01-28_09h51.20.752.csv,1,35,1,2,z,0,1,1,tac,C,9,1,1C,2C,0,1,b,2.58453240000108,1,0,0,0,1C,2C,C12,3.91202300542815,0.507459049449349,0.496256461192523,0.496256461192523,0.498124713898298,0.498124713898298,0.507410236363114,0.498124713898298,0.5,0.494395215503414,0.5,0.503743538807477,0.494395215503414,0.498124713898298,0.498124713898298,0.498124713898298,0.511146741774665,0.496256461192523,0.503743538807477,0.5,0.503743538807477,0.134869820975487,0.432019095485475,-0.5,-0.00187528610170196,0.5,0.00375057220340391,1.08305196334786,13.3993747634486,2.72721833437933,0.5,79.4336104963467
CBC_1064,CBC_1064_MSI_TV_v3_Vset4_Tset1_2024-01-28_09h51.20.752.csv,1,36,0,1,z,0,1,3,tac,B,63,1,0B,1B,0,1,z,2.49379110000064,0,1,1,1,1B,0B,B01,2.32238772029023,0.507459049449349,0.496256461192523,0.496256461192523,0.498124713898298,0.498124713898298,0.507410236363114,0.498124713898298,0.5,0.494395215503414,0.498124713898298,0.503743538807477,0.494395215503414,0.498124713898298,0.498124713898298,0.498124713898298,0.511146741774665,0.509285006355388,0.490714993644612,0.507410236363114,0.498124713898298,0.22239809700096,0.663788689446513,0.492589763636886,0.00184749347517781,0.5,0.00375057220340391,1.08305196334786,13.3993747634486,2.72721833437933,0.5,79.4336104963467
CBC_1064,CBC_1064_MSI_TV_v3_Vset4_Tset1_2024-01-28_09h51.20.752.csv,1,37,1,0,z,0,1,2,tac,A,63,0,1A,0A,1,0,z,2.23780490000081,0,1,1,0,0A,1A,A10,3.25809653802148,0.507459049449349,0.496256461192523,0.496256461192523,0.498124713898298,0.498124713898298,0.509257729838292,0.498124713898298,0.5,0.494395215503414,0.498124713898298,0.503743538807477,0.494395215503414,0.498124713898298,0.498124713898298,0.498124713898298,0.511146741774665,0.511201337146276,0.488798662853724,0.507459049449349,0.496256461192523,0.278827376257481,0.693999553087436,-0.507459049449349,-0.0019032618052305,0.5,0.00375057220340391,1.08305196334786,13.3993747634486,2.72721833437933,0.5,79.4336104963467
CBC_1064,CBC_1064_MSI_TV_v3_Vset4_Tset1_2024-01-28_09h51.20.752.csv,1,38,1,0,b,1,0,3,tac,B,63,1,1B,0B,1,0,b,3.07918640000116,1,0,1,1,1B,0B,B10,3.27714473299218,0.505555787644118,0.496256461192523,0.496256461192523,0.498124713898298,0.498124713898298,0.509257729838292,0.498124713898298,0.5,0.494395215503414,0.498124713898298,0.503743538807477,0.494395215503414,0.498124713898298,0.498124713898298,0.498124713898298,0.511146741774665,0.511132242877324,0.488867757122676,0.509257729838292,0.498124713898298,0.154414152404349,0.69304282348847,0.490742270161708,0.00184056431750384,0.5,0.00375057220340391,1.08305196334786,13.3993747634486,2.72721833437933,0.5,79.4336104963467
CBC_1064,CBC_1064_MSI_TV_v3_Vset4_Tset1_2024-01-28_09h51.20.752.csv,1,39,3,1,b,1,0,0,tac,D,27,1,3D,1D,1,0,z,5.1459734,0,1,0,0,1D,3D,D31,3.29583686600433,0.505555787644118,0.496256461192523,0.496256461192523,0.498124713898298,0.498124713898298,0.511098294155796,0.498124713898298,0.5,0.494395215503414,0.498124713898298,0.503743538807477,0.494395215503414,0.498124713898298,0.498124713898298,0.498124713898298,0.511146741774665,0.486979060847581,0.513020939152419,0.498124713898298,0.511146741774665,0.0138382220485926,0.278627053499779,-0.498124713898298,-0.00186825270577548,0.5,0.00375057220340391,1.08305196334786,13.3993747634486,2.72721833437933,0.5,79.4336104963467
CBC_1064,CBC_1064_MSI_TV_v3_Vset4_Tset1_2024-01-28_09h51.20.752.csv,1,40,2,3,b,1,0,1,tac,C,63,1,2C,3C,1,0,b,2.43776700000035,1,0,1,1,2C,3C,C23,2.62103882411258,0.505555787644118,0.496256461192523,0.496256461192523,0.498124713898298,0.498124713898298,0.511098294155796,0.498124713898298,0.5,0.494395215503414,0.498124713898298,0.503743538807477,0.494395215503414,0.498124713898298,0.496256461192523,0.498124713898298,0.511146741774665,0.509347538793987,0.490652461206013,0.503743538807477,0.494395215503414,0.230766773752103,0.662962676823044,0.496256461192523,0.00186124568910827,0.5,0.00375057220340391,1.08305196334786,13.3993747634486,2.72721833437933,0.5,79.4336104963467
CBC_1064,CBC_1064_MSI_TV_v3_Vset4_Tset1_2024-01-28_09h51.20.752.csv,1,41,2,0,z,0,1,2,tac,A,27,1,2A,0A,0,1,z,2.26854110000113,0,1,1,1,0A,2A,A20,3.3322045101752,0.505555787644118,0.496256461192523,0.496256461192523,0.498124713898298,0.498124713898298,0.511098294155796,0.498124713898298,0.5,0.494395215503414,0.498124713898298,0.505604784496586,0.494395215503414,0.498124713898298,0.496256461192523,0.498124713898298,0.511146741774665,0.509298552874979,0.490701447125021,0.505555787644118,0.496256461192523,0.258698468161946,0.663004411721066,0.494444212355882,0.00185444871899591,0.5,0.00375057220340391,1.08305196334786,13.3993747634486,2.72721833437933,0.5,79.4336104963467
CBC_1064,CBC_1064_MSI_TV_v3_Vset4_Tset1_2024-01-28_09h51.20.752.csv,1,42,3,2,b,1,0,0,tac,D,63,1,3D,2D,1,0,b,2.65795799999978,1,0,1,1,3D,2D,D32,2.94443897916644,0.507410236363114,0.496256461192523,0.496256461192523,0.498124713898298,0.498124713898298,0.511098294155796,0.498124713898298,0.5,0.494395215503414,0.498124713898298,0.505604784496586,0.494395215503414,0.498124713898298,0.496256461192523,0.498124713898298,0.511146741774665,0.513020939152419,0.486979060847581,0.511146741774665,0.498124713898298,0.217442434223648,0.722590483163303,0.488853258225335,0.00183347944184338,0.5,0.00375057220340391,1.08305196334786,13.3993747634486,2.72721833437933,0.5,79.4336104963467
CBC_1064,CBC_1064_MSI_TV_v3_Vset4_Tset1_2024-01-28_09h51.20.752.csv,1,43,3,1,z,0,1,3,tac,B,27,1,3B,1B,0,1,z,2.76018769999973,0,1,1,1,1B,3B,B31,3.36729582998647,0.507410236363114,0.496256461192523,0.496256461192523,0.498124713898298,0.498124713898298,0.511098294155796,0.498124713898298,0.5,0.494395215503414,0.498124713898298,0.505604784496586,0.494395215503414,0.498124713898298,0.496256461192523,0.498124713898298,0.512980221216509,0.511098294155796,0.488901705844204,0.511098294155796,0.5,0.193189001672749,0.692029041961453,0.488901705844204,0.00183366114813603,0.5,0.00375057220340391,1.08305196334786,13.3993747634486,2.72721833437933,0.5,79.4336104963467
CBC_1064,CBC_1064_MSI_TV_v3_Vset4_Tset1_2024-01-28_09h51.20.752.csv,1,44,2,3,b,1,0,1,tac,C,63,1,2C,3C,1,0,z,2.98662220000097,0,1,0,0,3C,2C,C23,2.46809953147162,0.507410236363114,0.496256461192523,0.496256461192523,0.498124713898298,0.498124713898298,0.512931955303932,0.498124713898298,0.5,0.494395215503414,0.498124713898298,0.505604784496586,0.494395215503414,0.498124713898298,0.496256461192523,0.498124713898298,0.512980221216509,0.488791839361943,0.511208160638057,0.494395215503414,0.505604784496586,0.0727839756282872,0.305981994642928,-0.494395215503414,-0.00185426495276299,0.5,0.00375057220340391,1.08305196334786,13.3993747634486,2.72721833437933,0.5,79.4336104963467
CBC_1064,CBC_1064_MSI_AV_v3_Vset5_Aset1_2024-01-28_10h00.06.405.csv,2,1,1,0,b,1,0,3,aud,B,63,1,1B,0B,1,0,b,2.43312379999952,1,0,1,1,1B,0B,B10,2.77258872223978,0.5,0.5,0.5,0.5,0.5,0.5,0.5,0.5,0.5,0.5,0.5,0.5,0.5,0.5,0.5,0.5,0.5,0.5,0.5,0.5,0.175010151177752,0.499864153319472,0.5,0.5,0.5,1,1.09921192991302,0.0231367070984478,2.47984585283299,0.5,66.0330080577018
CBC_1064,CBC_1064_MSI_AV_v3_Vset5_Aset1_2024-01-28_10h00.06.405.csv,2,2,0,1,b,1,0,2,aud,A,63,1,0A,1A,1,0,b,2.89514369999961,1,0,1,1,0A,1A,A01,2.83321334405622,0.5,0.5,0.5,0.5,0.5,1,0.5,0.5,0.5,0.5,0.5,0.5,0.5,0.5,0.5,0.5,0.5,0.5,0.5,0.5,0.1210384850255,0.500599974797666,0.5,0.5,0.5,1,1.09921192991302,0.0231367070984478,2.47984585283299,0.5,66.0330080577018
CBC_1064,CBC_1064_MSI_AV_v3_Vset5_Aset1_2024-01-28_10h00.06.405.csv,2,3,1,2,z,0,1,1,aud,C,9,1,1C,2C,0,1,z,3.94740849999926,0,1,1,1,2C,1C,C12,2.89037175789616,1,0.5,0.5,0.5,0.5,1,0.5,0.5,0.5,0.5,0.5,0.5,0.5,0.5,0.5,0.5,0.5,0.5,0.5,0.5,0.0520287507066265,0.500626771101532,0.5,0.5,0.5,1,1.09921192991302,0.0231367070984478,2.47984585283299,0.5,66.0330080577018
CBC_1064,CBC_1064_MSI_AV_v3_Vset5_Aset1_2024-01-28_10h00.06.405.csv,2,4,1,0,z,0,1,2,aud,A,63,1,1A,0A,0,1,b,1.84586919999947,1,0,0,0,1A,0A,A10,2.94443897916644,1,0.5,0.5,0.5,0.5,1,0.5,0.5,0.5,0.5,1,0.5,0.5,0.5,0.5,0.5,0,1,0.5,1,0.265811841097058,0.485615515529504,-0.5,-0.5,0.5,1,1.09921192991302,0.0231367070984478,2.47984585283299,0.5,66.0330080577018
CBC_1064,CBC_1064_MSI_AV_v3_Vset5_Aset1_2024-01-28_10h00.06.405.csv,2,5,3,1,b,1,0,0,aud,D,27,1,3D,1D,1,0,b,2.7124176999987,1,0,1,1,3D,1D,D31,2.99573227355399,1,0,0.5,0.5,0.5,1,0.5,0.5,0.5,0.5,1,0.5,0.5,0.5,0.5,0.5,0.5,0.5,0.5,0.5,0.140104075122891,0.500456560324394,0.5,0.5,0.5,1,1.09921192991302,0.0231367070984478,2.47984585283299,0.5,66.0330080577018
CBC_1064,CBC_1064_MSI_AV_v3_Vset5_Aset1_2024-01-28_10h00.06.405.csv,2,6,0,1,z,0,1,3,aud,B,63,1,0B,1B,0,1,b,2.40549559999999,1,0,0,0,0B,1B,B01,3.04452243772342,1,0,0.5,0.5,0.5,1,0.5,0.5,0.5,0.5,1,0.5,0.5,0.5,0.5,1,0,1,0.5,1,0.173713964484303,0.48530543625352,-0.5,-0.5,0.5,1,1.09921192991302,0.0231367070984478,2.47984585283299,0.5,66.0330080577018
CBC_1064,CBC_1064_MSI_AV_v3_Vset5_Aset1_2024-01-28_10h00.06.405.csv,2,7,2,3,b,1,0,1,aud,C,63,1,2C,3C,1,0,b,1.88415499999883,1,0,1,1,2C,3C,C23,3.09104245335832,1,0,0.5,0.5,0,1,0.5,0.5,0.5,0.5,1,0.5,0.5,0.5,0.5,1,1,0,1,0.5,0.274801329626482,0.514841601084601,0,0,0.5,1,1.09921192991302,0.0231367070984478,2.47984585283299,0.5,66.0330080577018
CBC_1064,CBC_1064_MSI_AV_v3_Vset5_Aset1_2024-01-28_10h00.06.405.csv,2,8,2,0,z,0,1,2,aud,A,27,1,2A,0A,0,1,b,2.31698079999933,1,0,0,0,2A,0A,A20,3.13549421592915,1,0,0.5,0.5,0,1,0.5,0.5,0.5,0.5,1,0.5,0.5,0.5,0.5,1,0,1,0.5,1,0.186539115010309,0.485647725444112,-0.5,-0.5,0.5,1,1.09921192991302,0.0231367070984478,2.47984585283299,0.5,66.0330080577018
CBC_1064,CBC_1064_MSI_AV_v3_Vset5_Aset1_2024-01-28_10h00.06.405.csv,2,9,3,2,b,1,0,0,aud,D,63,1,3D,2D,1,0,b,2.12879249999878,1,0,1,1,3D,2D,D32,3.17805383034795,1,0,0,0.5,0,1,0.5,0.5,0.5,0.5,1,0.5,0.5,0.5,0.5,1,1,0,1,0.5,0.229213042406088,0.514538318491227,0,0,0.5,1,1.09921192991302,0.0231367070984478,2.47984585283299,0.5,66.0330080577018
CBC_1064,CBC_1064_MSI_AV_v3_Vset5_Aset1_2024-01-28_10h00.06.405.csv,2,10,3,1,z,0,1,3,aud,B,27,1,3B,1B,0,1,z,2.60676799999874,0,1,1,1,1B,3B,B31,3.2188758248682,1,0,0,0.5,0,1,0.5,0.5,0.5,0.5,1,0.5,0.5,0.5,0.5,1,1,0,1,0.5,0.156693584180189,0.514262123627732,0,0,0.5,1,1.09921192991302,0.0231367070984478,2.47984585283299,0.5,66.0330080577018
CBC_1064,CBC_1064_MSI_AV_v3_Vset5_Aset1_2024-01-28_10h00.06.405.csv,2,11,3,2,z,0,1,1,aud,C,63,1,3C,2C,0,1,b,3.06204389999857,1,0,0,0,3C,2C,C32,3.25809653802148,1,0,0,0.5,0,1,0.5,0.5,0.5,0.5,1,0.5,0.5,0.5,0.5,1,0,1,0.5,1,0.102810633422615,0.486191927828235,-0.5,-0.5,0.5,1,1.09921192991302,0.0231367070984478,2.47984585283299,0.5,66.0330080577018
CBC_1064,CBC_1064_MSI_AV_v3_Vset5_Aset1_2024-01-28_10h00.06.405.csv,2,12,1,3,b,1,0,3,aud,B,27,1,1B,3B,1,0,b,2.19040469999982,1,0,1,1,1B,3B,B13,3.29583686600433,1,0,0,0.5,0,1,0.5,0.5,0.5,0.5,1,0,0.5,0.5,0.5,1,1,0,1,0.5,0.21809957617298,0.513739280840673,0,0,0.5,1,1.09921192991302,0.0231367070984478,2.47984585283299,0.5,66.0330080577018
CBC_1064,CBC_1064_MSI_AV_v3_Vset5_Aset1_2024-01-28_10h00.06.405.csv,2,13,3,2,z,0,1,1,aud,C,63,1,3C,2C,0,1,b,2.5406183999994,1,0,0,0,3C,2C,C32,2.63905732961526,1,0,0,0.5,0,1,0.5,0.5,0.5,0.5,1,0,0.5,0.5,0.5,1,0,1,0,1,0.15603326563835,0.485660468737649,0,0,0.5,1,1.09921192991302,0.0231367070984478,2.47984585283299,0.5,66.0330080577018
CBC_1064,CBC_1064_MSI_AV_v3_Vset5_Aset1_2024-01-28_10h00.06.405.csv,2,14,3,2,b,1,0,0,aud,D,63,1,3D,2D,1,0,b,2.40697459999865,1,0,1,1,3D,2D,D32,2.67414864942653,1,0,0,0.5,0,1,0.5,0.5,0.5,0.5,1,0,0.5,0.5,0.5,1,1,0,1,0.5,0.184147372914168,0.515059437081982,0,0,0.5,1,1.09921192991302,0.0231367070984478,2.47984585283299,0.5,66.0330080577018
CBC_1064,CBC_1064_MSI_AV_v3_Vset5_Aset1_2024-01-28_10h00.06.405.csv,2,15,0,3,b,1,0,2,aud,A,9,1,0A,3A,1,0,b,2.8630691999997,1,0,1,1,0A,3A,A03,3.40119738166216,1,0,0,0.5,0,1,0.5,0.5,0.5,0.5,1,0,0.5,0.5,0.5,1,1,0,1,0.5,0.127658445680513,0.514599158933479,0,0,0.5,1,1.09921192991302,0.0231367070984478,2.47984585283299,0.5,66.0330080577018
CBC_1064,CBC_1064_MSI_AV_v3_Vset5_Aset1_2024-01-28_10h00.06.405.csv,2,16,0,1,z,0,1,3,aud,B,63,0,0B,1B,1,0,b,3.1344227999989,1,0,0,1,0B,1B,B01,2.7408400239252,1,0,0,0.5,0,1,0.5,0.5,0.5,0.5,1,0,0.5,0.5,0.5,1,0,1,0,1,0.0970993553556317,0.486645721351564,1,1,0.5,1,1.09921192991302,0.0231367070984478,2.47984585283299,0.5,66.0330080577018
CBC_1064,CBC_1064_MSI_AV_v3_Vset5_Aset1_2024-01-28_10h00.06.405.csv,2,17,2,3,z,0,1,0,aud,D,63,1,2D,3D,0,1,b,2.48144499999853,1,0,0,0,2D,3D,D23,3.46573590279973,1,0,0,0.5,1,1,0.5,0.5,0.5,0.5,1,0,0.5,0.5,0.5,1,0,1,0.5,1,0.163797845309335,0.486243682109571,-0.5,-0.5,0.5,1,1.09921192991302,0.0231367070984478,2.47984585283299,0.5,66.0330080577018
CBC_1064,CBC_1064_MSI_AV_v3_Vset5_Aset1_2024-01-28_10h00.06.405.csv,2,18,0,2,z,0,1,1,aud,C,27,1,0C,2C,0,1,b,2.10525179999877,1,0,0,0,0C,2C,C02,3.49650756146648,1,0,0,0.5,1,1,0.5,0.5,0.5,0.5,1,0,0.5,0.5,0,1,0,1,0.5,1,0.219961569058235,0.484842364549744,-0.5,-0.5,0.5,1,1.09921192991302,0.0231367070984478,2.47984585283299,0.5,66.0330080577018
CBC_1064,CBC_1064_MSI_AV_v3_Vset5_Aset1_2024-01-28_10h00.06.405.csv,2,19,0,1,b,1,0,2,aud,A,63,1,0A,1A,1,0,z,1.70476719999897,0,1,0,0,1A,0A,A01,2.83321334405622,1,0,0,0.5,1,1,0.5,0.5,0,0.5,1,0,0.5,0.5,0,1,0,1,0,1,0.286532024706862,0.485639003955975,0,0,0.5,1,1.09921192991302,0.0231367070984478,2.47984585283299,0.5,66.0330080577018
CBC_1064,CBC_1064_MSI_AV_v3_Vset5_Aset1_2024-01-28_10h00.06.405.csv,2,20,1,0,b,1,0,3,aud,B,63,1,1B,0B,1,0,b,2.00564729999951,1,0,1,1,1B,0B,B10,2.86220088092947,1,0,0,0.5,1,1,0.5,0.5,0,0.5,1,0,0.5,0.5,0,1,NaN,NaN,1,1,NaN,NaN,0,0,0.5,1,1.09921192991302,0.0231367070984478,2.47984585283299,0.5,66.0330080577018
CBC_1064,CBC_1064_MSI_AV_v3_Vset5_Aset1_2024-01-28_10h00.06.405.csv,2,21,1,3,z,0,1,0,aud,D,27,1,1D,3D,0,1,b,2.24173289999908,1,0,0,0,1D,3D,D13,3.58351893845611,1,0,0,0.5,1,1,0.5,0.5,0,0.5,1,0,0.5,0.5,0,1,0,1,0.5,1,0.198099260325028,0.48588026560532,-0.5,-0.5,0.5,1,1.09921192991302,0.0231367070984478,2.47984585283299,0.5,66.0330080577018
CBC_1064,CBC_1064_MSI_AV_v3_Vset5_Aset1_2024-01-28_10h00.06.405.csv,2,22,3,2,z,0,1,1,aud,C,63,1,3C,2C,NaN,NaN,[],NaN,NaN,NaN,NaN,NaN,,,C32,2.51230562397611,1,0,0,0.5,1,1,0.5,0.5,0,0.5,1,0,0.5,0,0,1,0,0,0,0,NaN,0,0,0,0.5,1,1.09921192991302,0.0231367070984478,2.47984585283299,0.5,66.0330080577018
CBC_1064,CBC_1064_MSI_AV_v3_Vset5_Aset1_2024-01-28_10h00.06.405.csv,2,23,0,1,b,1,0,2,aud,A,63,1,0A,1A,1,0,z,2.3004022999994,0,1,0,0,1A,0A,A01,2.53897387105828,1,0,0,0.5,1,1,0.5,0.5,0,0.5,1,0,0.5,0,0,1,0,1,0,1,0.188766844076603,0.485012616769906,0,0,0.5,1,1.09921192991302,0.0231367070984478,2.47984585283299,0.5,66.0330080577018
CBC_1064,CBC_1064_MSI_AV_v3_Vset5_Aset1_2024-01-28_10h00.06.405.csv,2,24,2,3,z,0,1,0,aud,D,63,1,2D,3D,0,1,b,2.38508149999961,1,0,0,0,2D,3D,D23,2.9704144655697,1,0,0,0.5,1,1,0.5,0.5,0,0.5,1,0,0.5,0,0,1,0,1,0,1,0.176567111523166,0.485305304206128,0,0,0.5,1,1.09921192991302,0.0231367070984478,2.47984585283299,0.5,66.0330080577018
CBC_1064,CBC_1064_MSI_AV_v3_Vset5_Aset1_2024-01-28_10h00.06.405.csv,2,25,2,0,b,1,0,1,aud,C,27,1,2C,0C,1,0,z,2.88881459999902,0,1,0,0,0C,2C,C20,3.68887945411394,1,0,0,0.5,1,1,0.5,0.5,0,0.5,1,0,0.5,0,0,1,0,1,0,1,0.118031628378056,0.4857240404036,0,0,0.5,1,1.09921192991302,0.0231367070984478,2.47984585283299,0.5,66.0330080577018
CBC_1064,CBC_1064_MSI_AV_v3_Vset5_Aset1_2024-01-28_10h00.06.405.csv,2,26,0,1,b,1,0,2,aud,A,63,1,0A,1A,1,0,b,2.25338339999962,1,0,1,1,0A,1A,A01,2.32727770558442,1,0,0,0.5,1,1,0.5,0.5,0,0.5,1,0,0.5,0,0,1,1,0,1,0,0.207861212822779,0.514537949079039,0,0,0.5,1,1.09921192991302,0.0231367070984478,2.47984585283299,0.5,66.0330080577018
CBC_1064,CBC_1064_MSI_AV_v3_Vset5_Aset1_2024-01-28_10h00.06.405.csv,2,27,1,3,b,1,0,3,aud,B,27,1,1B,3B,1,0,b,2.29307089999929,1,0,1,1,1B,3B,B13,3.04452243772342,1,0,0,0.5,1,1,0.5,0.5,0,0.5,1,0,0.5,0,0,1,1,0,1,0.5,0.202090582994557,0.51622392219201,0,0,0.5,1,1.09921192991302,0.0231367070984478,2.47984585283299,0.5,66.0330080577018
CBC_1064,CBC_1064_MSI_AV_v3_Vset5_Aset1_2024-01-28_10h00.06.405.csv,2,28,3,2,z,0,1,1,aud,C,63,1,3C,2C,0,1,b,1.55022019999888,1,0,0,0,3C,2C,C32,2.37490575457367,1,0,0,0.5,1,1,0.5,0.5,0,0.5,1,0,0.5,0,0,1,0,1,0,1,0.288416018715174,0.485342428371234,0,0,0.5,1,1.09921192991302,0.0231367070984478,2.47984585283299,0.5,66.0330080577018
CBC_1064,CBC_1064_MSI_AV_v3_Vset5_Aset1_2024-01-28_10h00.06.405.csv,2,29,3,2,b,1,0,0,aud,D,63,1,3D,2D,1,0,b,2.76182309999967,1,0,1,1,3D,2D,D32,2.68557734525015,1,0,0,0.5,1,1,0.5,0.5,0,0.5,1,0,0.5,0,0,1,1,0,1,0,0.138286941003739,0.513945612998203,0,0,0.5,1,1.09921192991302,0.0231367070984478,2.47984585283299,0.5,66.0330080577018
CBC_1064,CBC_1064_MSI_AV_v3_Vset5_Aset1_2024-01-28_10h00.06.405.csv,2,30,0,1,z,0,1,3,aud,B,63,1,0B,1B,0,1,b,2.21579819999897,1,0,0,0,0B,1B,B01,2.70805020110221,1,0,0,0.5,1,1,0.5,0.5,0,0.5,1,0,0.5,0,0,1,NaN,NaN,1,1,NaN,NaN,-1,-1,0.5,1,1.09921192991302,0.0231367070984478,2.47984585283299,0.5,66.0330080577018
CBC_1064,CBC_1064_MSI_AV_v3_Vset5_Aset1_2024-01-28_10h00.06.405.csv,2,31,2,0,z,0,1,2,aud,A,27,1,2A,0A,0,1,z,2.42516839999917,0,1,1,1,0A,2A,A20,3.13549421592915,1,0,0,0.5,0,1,0.5,0.5,0,0.5,1,0,0.5,0,0,1,1,0,1,0,0.18125728611794,0.514398921579006,0,0,0.5,1,1.09921192991302,0.0231367070984478,2.47984585283299,0.5,66.0330080577018
CBC_1064,CBC_1064_MSI_AV_v3_Vset5_Aset1_2024-01-28_10h00.06.405.csv,2,32,3,0,b,1,0,0,aud,D,9,1,3D,0D,1,0,b,2.2364164999999,1,0,1,1,3D,0D,D30,3.85014760171006,1,0,0,0.5,0,1,0.5,0.5,0,0.5,1,0,0.5,0,0,1,1,0,1,0.5,0.210487581591771,0.514101893823317,0,0,0.5,1,1.09921192991302,0.0231367070984478,2.47984585283299,0.5,66.0330080577018
CBC_1064,CBC_1064_MSI_AV_v3_Vset5_Aset1_2024-01-28_10h00.06.405.csv,2,33,3,2,z,0,1,1,aud,C,63,1,3C,2C,0,1,b,2.76756250000017,1,0,0,0,3C,2C,C32,2.26176309847379,1,0,0,0.5,0,1,0.5,0.5,0,0.5,1,0,0.5,0,0,1,0,1,0,1,0.129928979583902,0.485113951802324,0,0,0.5,1,1.09921192991302,0.0231367070984478,2.47984585283299,0.5,66.0330080577018
CBC_1064,CBC_1064_MSI_AV_v3_Vset5_Aset1_2024-01-28_10h00.06.405.csv,2,34,0,1,z,0,1,3,aud,B,63,1,0B,1B,0,1,z,2.05286749999959,0,1,1,1,1B,0B,B01,2.50552593699074,1,0,0,0.5,0,1,0.5,0.5,0,0.5,1,0,0.5,0,0,1,1,0,1,0,0.243200024811075,0.514964581550271,0,0,0.5,1,1.09921192991302,0.0231367070984478,2.47984585283299,0.5,66.0330080577018
CBC_1064,CBC_1064_MSI_AV_v3_Vset5_Aset1_2024-01-28_10h00.06.405.csv,2,35,0,1,b,1,0,2,aud,A,63,0,0A,1A,0,1,z,3.99711169999955,0,1,0,1,1A,0A,A01,2.30258509299405,1,0,0,0.5,0,1,0.5,0.5,0,0.5,1,0,0.5,0,0,1,0,1,0,1,0.0485223675884222,0.486052986218032,1,1,0.5,1,1.09921192991302,0.0231367070984478,2.47984585283299,0.5,66.0330080577018
CBC_1064,CBC_1064_MSI_AV_v3_Vset5_Aset1_2024-01-28_10h00.06.405.csv,2,36,2,3,z,0,1,0,aud,D,63,1,2D,3D,0,1,b,2.57017359999918,1,0,0,0,2D,3D,D23,2.83321334405622,1,1,0,0.5,0,1,0.5,0.5,0,0.5,1,0,0.5,0,0,1,0,1,0,1,0.15242999410358,0.485811782019802,0,0,0.5,1,1.09921192991302,0.0231367070984478,2.47984585283299,0.5,66.0330080577018
CBC_1064,CBC_1064_MSI_AV_v3_Vset5_Aset1_2024-01-28_10h00.06.405.csv,2,37,1,2,b,1,0,3,aud,B,9,1,1B,2B,1,0,z,2.10882819999915,0,1,0,0,2B,1B,B12,3.95124371858143,1,1,0,0.5,0,1,0.5,0.5,0,0.5,1,0,0.5,0,0,1,0,1,0.5,1,0.219468765466709,0.485097505227797,-0.5,-0.5,0.5,1,1.09921192991302,0.0231367070984478,2.47984585283299,0.5,66.0330080577018
CBC_1064,CBC_1064_MSI_AV_v3_Vset5_Aset1_2024-01-28_10h00.06.405.csv,2,38,2,0,z,0,1,2,aud,A,27,1,2A,0A,0,1,z,3.01386019999882,0,1,1,1,0A,2A,A20,2.87167962488401,1,1,0,0.5,0,1,0,0.5,0,0.5,1,0,0.5,0,0,1,1,0,1,0,0.112983366809773,0.514031645167601,0,0,0.5,1,1.09921192991302,0.0231367070984478,2.47984585283299,0.5,66.0330080577018
CBC_1064,CBC_1064_MSI_AV_v3_Vset5_Aset1_2024-01-28_10h00.06.405.csv,2,39,2,3,b,1,0,1,aud,C,63,1,2C,3C,1,0,b,2.50244969999949,1,0,1,1,2C,3C,C23,3.29583686600433,1,1,0,0.5,0,1,0,0.5,0,0.5,1,0,0.5,0,0,1,1,0,1,0,0.170634993141144,0.515122228214468,0,0,0.5,1,1.09921192991302,0.0231367070984478,2.47984585283299,0.5,66.0330080577018
CBC_1064,CBC_1064_MSI_AV_v3_Vset5_Aset1_2024-01-28_10h00.06.405.csv,2,40,1,3,z,0,1,0,aud,D,27,1,1D,3D,0,1,b,2.17876199999864,1,0,0,0,1D,3D,D13,3.31418600467253,1,1,0,0.5,0,1,0,0.5,0,0.5,1,0,0.5,0,0,1,0,1,0,1,0.207585666644017,0.484512910428152,0,0,0.5,1,1.09921192991302,0.0231367070984478,2.47984585283299,0.5,66.0330080577018
CBC_1064,CBC_1064_MSI_AV_v3_Vset5_Aset1_2024-01-28_10h00.06.405.csv,2,41,0,1,b,1,0,2,aud,A,63,1,0A,1A,1,0,z,2.43260009999904,0,1,0,0,1A,0A,A01,2.23359222150709,1,1,0,0.5,0,1,0,0.5,0,0.5,1,0,0.5,0,0,1,NaN,NaN,1,1,NaN,NaN,-1,-1,0.5,1,1.09921192991302,0.0231367070984478,2.47984585283299,0.5,66.0330080577018
CBC_1064,CBC_1064_MSI_AV_v3_Vset5_Aset1_2024-01-28_10h00.06.405.csv,2,42,0,2,z,0,1,1,aud,C,27,1,0C,2C,0,1,b,2.94591579999906,1,0,0,0,0C,2C,C02,3.3499040872746,1,0,0,0.5,0,1,0,0.5,0,0.5,1,0,0.5,0,0,1,0,1,0,1,0.112918267050994,0.486467822370137,0,0,0.5,1,1.09921192991302,0.0231367070984478,2.47984585283299,0.5,66.0330080577018
CBC_1064,CBC_1064_MSI_AV_v3_Vset5_Aset1_2024-01-28_10h00.06.405.csv,2,43,3,2,b,1,0,0,aud,D,63,1,3D,2D,1,0,b,2.39308139999866,1,0,1,1,3D,2D,D32,2.67414864942653,1,0,0,0.5,0,1,0,0.5,0,0.5,1,0,0.5,0,0,1,1,0,1,0,0.185959876850895,0.514396083051036,0,0,0.5,1,1.09921192991302,0.0231367070984478,2.47984585283299,0.5,66.0330080577018
CBC_1064,CBC_1064_MSI_AV_v3_Vset5_Aset1_2024-01-28_10h00.06.405.csv,2,44,1,0,b,1,0,3,aud,B,63,1,1B,0B,1,0,b,2.15155689999938,1,0,1,1,1B,0B,B10,2.97892515523761,1,0,0,0.5,0,1,0,0.5,0,0.5,1,0,0.5,0,0,1,1,0,1,0,0.225442661809819,0.515117548716528,0,0,0.5,1,1.09921192991302,0.0231367070984478,2.47984585283299,0.5,66.0330080577018
CBC_1064,CBC_1064_MSI_AV_v3_Vset3_Aset3_2024-01-28_11h09.57.594.csv,3,1,1,0,z,0,1,2,aud,A,63,1,1A,0A,0,1,b,3.38667720000012,1,0,0,0,1A,0A,A10,2.77258872223978,0.5,0.5,0.5,0.5,0.5,0.5,0.5,0.5,0.5,0.5,0.5,0.5,0.5,0.5,0.5,0.5,0.5,0.5,0.5,0.5,0.0773460182895024,0.500946433339209,-0.5,-0.167850819157654,0.5,0.335701638315308,1.084375,0.701585679152242,2.42186735532236,0.5,72.2460879505123
CBC_1064,CBC_1064_MSI_AV_v3_Vset3_Aset3_2024-01-28_11h09.57.594.csv,3,2,2,3,b,1,0,1,aud,C,63,1,2C,3C,1,0,b,2.87962510000034,1,0,1,1,2C,3C,C23,2.83321334405622,0.5,0.332149180842346,0.5,0.5,0.5,0.5,0.5,0.5,0.5,0.5,0.5,0.5,0.5,0.5,0.5,0.5,0.5,0.5,0.5,0.5,0.118086990468433,0.499219823244058,0.5,0.167850819157654,0.5,0.335701638315308,1.084375,0.701585679152242,2.42186735532236,0.5,72.2460879505123
CBC_1064,CBC_1064_MSI_AV_v3_Vset3_Aset3_2024-01-28_11h09.57.594.csv,3,3,2,0,z,0,1,2,aud,A,27,1,2A,0A,0,1,z,2.89422059999924,0,1,1,1,0A,2A,A20,2.89037175789616,0.5,0.332149180842346,0.5,0.5,0.5,0.5,0.5,0.5,0.5,0.5,0.667850819157654,0.5,0.5,0.5,0.5,0.5,0.5,0.5,0.5,0.5,0.116745506851988,0.499645717840173,0.5,0.167850819157654,0.5,0.335701638315308,1.084375,0.701585679152242,2.42186735532236,0.5,72.2460879505123
CBC_1064,CBC_1064_MSI_AV_v3_Vset3_Aset3_2024-01-28_11h09.57.594.csv,3,4,0,1,z,0,1,3,aud,B,63,1,0B,1B,0,1,b,2.93153400000119,1,0,0,0,0B,1B,B01,2.94443897916644,0.667850819157654,0.332149180842346,0.5,0.5,0.5,0.5,0.5,0.5,0.5,0.5,0.667850819157654,0.5,0.5,0.5,0.5,0.5,0.5,0.5,0.5,0.5,0.113191119599638,0.499881063036945,-0.5,-0.167850819157654,0.5,0.335701638315308,1.084375,0.701585679152242,2.42186735532236,0.5,72.2460879505123
CBC_1064,CBC_1064_MSI_AV_v3_Vset3_Aset3_2024-01-28_11h09.57.594.csv,3,5,1,0,b,1,0,3,aud,B,63,1,1B,0B,1,0,b,2.51018640000075,1,0,1,1,1B,0B,B10,2.99573227355399,0.667850819157654,0.332149180842346,0.5,0.5,0.332149180842346,0.5,0.5,0.5,0.5,0.5,0.667850819157654,0.5,0.5,0.5,0.5,0.5,0.667850819157654,0.332149180842346,0.5,0.332149180842346,0.206000796499621,0.637966500800228,0.5,0.167850819157654,0.5,0.335701638315308,1.084375,0.701585679152242,2.42186735532236,0.5,72.2460879505123
CBC_1064,CBC_1064_MSI_AV_v3_Vset3_Aset3_2024-01-28_11h09.57.594.csv,3,6,2,3,b,1,0,1,aud,C,63,1,2C,3C,1,0,z,3.10231849999946,0,1,0,0,3C,2C,C23,2.35137525716348,0.667850819157654,0.332149180842346,0.5,0.5,0.332149180842346,0.667850819157654,0.5,0.5,0.5,0.5,0.667850819157654,0.5,0.5,0.5,0.5,0.5,0.332149180842346,0.667850819157654,0.5,0.667850819157654,0.0695213336005733,0.360206402234474,-0.5,-0.167850819157654,0.5,0.335701638315308,1.084375,0.701585679152242,2.42186735532236,0.5,72.2460879505123
CBC_1064,CBC_1064_MSI_AV_v3_Vset3_Aset3_2024-01-28_11h09.57.594.csv,3,7,1,3,z,0,1,0,aud,D,27,1,1D,3D,0,1,b,2.05473569999958,1,0,0,0,1D,3D,D13,3.09104245335832,0.667850819157654,0.332149180842346,0.5,0.5,0.332149180842346,0.667850819157654,0.5,0.5,0.5,0.5,0.667850819157654,0.332149180842346,0.5,0.5,0.5,0.5,0.5,0.5,0.5,0.5,0.235160182384487,0.498820656517184,-0.5,-0.167850819157654,0.5,0.335701638315308,1.084375,0.701585679152242,2.42186735532236,0.5,72.2460879505123
CBC_1064,CBC_1064_MSI_AV_v3_Vset3_Aset3_2024-01-28_11h09.57.594.csv,3,8,2,1,b,1,0,1,aud,C,9,1,2C,1C,1,0,b,1.70243359999949,1,0,1,1,2C,1C,C21,3.13549421592915,0.667850819157654,0.332149180842346,0.5,0.5,0.332149180842346,0.667850819157654,0.5,0.5,0.5,0.5,0.667850819157654,0.332149180842346,0.5,0.332149180842346,0.5,0.5,0.667850819157654,0.332149180842346,0.667850819157654,0.5,0.396882314979969,0.6389106697399,0.332149180842346,0.111503024173863,0.5,0.335701638315308,1.084375,0.701585679152242,2.42186735532236,0.5,72.2460879505123
CBC_1064,CBC_1064_MSI_AV_v3_Vset3_Aset3_2024-01-28_11h09.57.594.csv,3,9,1,3,b,1,0,3,aud,B,27,1,1B,3B,1,0,z,2.53945550000026,0,1,0,0,3B,1B,B13,3.17805383034795,0.667850819157654,0.332149180842346,0.5,0.5,0.332149180842346,0.667850819157654,0.5,0.5,0.5,0.5,0.779353843331517,0.332149180842346,0.5,0.332149180842346,0.5,0.5,0.332149180842346,0.667850819157654,0.5,0.667850819157654,0.113824787182902,0.36157184571136,-0.5,-0.167850819157654,0.5,0.335701638315308,1.084375,0.701585679152242,2.42186735532236,0.5,72.2460879505123
CBC_1064,CBC_1064_MSI_AV_v3_Vset3_Aset3_2024-01-28_11h09.57.594.csv,3,10,2,3,z,0,1,0,aud,D,63,1,2D,3D,0,1,z,2.46649369999977,0,1,1,1,3D,2D,D23,3.2188758248682,0.667850819157654,0.332149180842346,0.5,0.5,0.332149180842346,0.667850819157654,0.5,0.332149180842346,0.5,0.5,0.779353843331517,0.332149180842346,0.5,0.332149180842346,0.5,0.5,0.5,0.5,0.5,0.5,0.16736204334783,0.499925328373448,0.5,0.167850819157654,0.5,0.335701638315308,1.084375,0.701585679152242,2.42186735532236,0.5,72.2460879505123
CBC_1064,CBC_1064_MSI_AV_v3_Vset3_Aset3_2024-01-28_11h09.57.594.csv,3,11,0,1,z,0,1,3,aud,B,63,1,0B,1B,0,1,b,2.75872110000091,1,0,0,0,0B,1B,B01,2.56494935746154,0.667850819157654,0.332149180842346,0.5,0.5,0.332149180842346,0.667850819157654,0.5,0.332149180842346,0.5,0.5,0.779353843331517,0.332149180842346,0.5,0.332149180842346,0.5,0.667850819157654,0.198298760827219,0.801701239172781,0.332149180842346,0.667850819157654,0.0675207331638036,0.264105432391045,-0.332149180842346,-0.111503024173863,0.5,0.335701638315308,1.084375,0.701585679152242,2.42186735532236,0.5,72.2460879505123
CBC_1064,CBC_1064_MSI_AV_v3_Vset3_Aset3_2024-01-28_11h09.57.594.csv,3,12,2,0,b,1,0,1,aud,C,27,1,2C,0C,1,0,b,2.85951460000069,1,0,1,1,2C,0C,C20,3.29583686600433,0.667850819157654,0.332149180842346,0.5,0.5,0.220646156668483,0.667850819157654,0.5,0.332149180842346,0.5,0.5,0.779353843331517,0.332149180842346,0.5,0.332149180842346,0.5,0.667850819157654,0.779353843331517,0.220646156668483,0.779353843331517,0.5,0.168863596497613,0.721834482776852,0.220646156668483,0.0740712762815858,0.5,0.335701638315308,1.084375,0.701585679152242,2.42186735532236,0.5,72.2460879505123
CBC_1064,CBC_1064_MSI_AV_v3_Vset3_Aset3_2024-01-28_11h09.57.594.csv,3,13,2,3,z,0,1,0,aud,D,63,0,2D,3D,1,0,z,3.14310369999839,0,1,1,0,3D,2D,D23,2.63905732961526,0.667850819157654,0.332149180842346,0.5,0.5,0.220646156668483,0.667850819157654,0.5,0.332149180842346,0.5,0.5,0.853425119613103,0.332149180842346,0.5,0.332149180842346,0.5,0.667850819157654,0.667850819157654,0.332149180842346,0.667850819157654,0.5,0.119042504335342,0.638898411733927,-0.667850819157654,-0.224198614141445,0.5,0.335701638315308,1.084375,0.701585679152242,2.42186735532236,0.5,72.2460879505123
CBC_1064,CBC_1064_MSI_AV_v3_Vset3_Aset3_2024-01-28_11h09.57.594.csv,3,14,0,1,b,1,0,2,aud,A,63,1,0A,1A,1,0,b,2.85304019999967,1,0,1,1,0A,1A,A01,3.36729582998647,0.667850819157654,0.332149180842346,0.5,0.5,0.220646156668483,0.667850819157654,0.5,0.332149180842346,0.5,0.5,0.853425119613103,0.332149180842346,0.5,0.332149180842346,0.5,0.443652205016209,0.801701239172781,0.198298760827219,0.667850819157654,0.332149180842346,0.172356275716285,0.736067110569312,0.332149180842346,0.111503024173863,0.5,0.335701638315308,1.084375,0.701585679152242,2.42186735532236,0.5,72.2460879505123
CBC_1064,CBC_1064_MSI_AV_v3_Vset3_Aset3_2024-01-28_11h09.57.594.csv,3,15,3,2,z,0,1,1,aud,C,63,1,3C,2C,0,1,z,2.69357429999945,0,1,1,1,2C,3C,C32,3.40119738166216,0.779353843331517,0.332149180842346,0.5,0.5,0.220646156668483,0.667850819157654,0.5,0.332149180842346,0.5,0.5,0.853425119613103,0.332149180842346,0.5,0.332149180842346,0.5,0.443652205016209,0.92130430920905,0.0786956907909497,0.853425119613103,0.332149180842346,0.213644263499412,0.807412362797566,0.146574880386897,0.0492054274817517,0.5,0.335701638315308,1.084375,0.701585679152242,2.42186735532236,0.5,72.2460879505123
CBC_1064,CBC_1064_MSI_AV_v3_Vset3_Aset3_2024-01-28_11h09.57.594.csv,3,16,2,0,z,0,1,2,aud,A,27,1,2A,0A,0,1,z,2.16328980000071,0,1,1,1,0A,2A,A20,2.7408400239252,0.779353843331517,0.332149180842346,0.5,0.5,0.220646156668483,0.667850819157654,0.5,0.332149180842346,0.5,0.5,0.902630547094854,0.332149180842346,0.5,0.332149180842346,0.5,0.443652205016209,0.779353843331517,0.220646156668483,0.779353843331517,0.5,0.31871155235023,0.720324294863839,0.220646156668483,0.0740712762815858,0.5,0.335701638315308,1.084375,0.701585679152242,2.42186735532236,0.5,72.2460879505123
CBC_1064,CBC_1064_MSI_AV_v3_Vset3_Aset3_2024-01-28_11h09.57.594.csv,3,17,3,2,b,1,0,0,aud,D,63,1,3D,2D,1,0,b,2.47248860000036,1,0,1,1,3D,2D,D32,3.46573590279973,0.853425119613103,0.332149180842346,0.5,0.5,0.220646156668483,0.667850819157654,0.5,0.332149180842346,0.5,0.5,0.902630547094854,0.332149180842346,0.5,0.332149180842346,0.5,0.443652205016209,0.443652205016209,0.556347794983791,0.443652205016209,0.5,0.150511353052079,0.4517496051359,0.556347794983791,0.186766866249168,0.5,0.335701638315308,1.084375,0.701585679152242,2.42186735532236,0.5,72.2460879505123
CBC_1064,CBC_1064_MSI_AV_v3_Vset3_Aset3_2024-01-28_11h09.57.594.csv,3,18,2,3,z,0,1,0,aud,D,63,1,2D,3D,0,1,z,1.69678419999946,0,1,1,1,3D,2D,D23,2.39789527279837,0.853425119613103,0.332149180842346,0.5,0.5,0.220646156668483,0.667850819157654,0.5,0.332149180842346,0.5,0.5,0.902630547094854,0.332149180842346,0.5,0.332149180842346,0.5,0.630419071265377,0.630419071265377,0.369580928734623,0.630419071265377,0.5,0.375871220734255,0.608798127614565,0.369580928734623,0.124068923266306,0.5,0.335701638315308,1.084375,0.701585679152242,2.42186735532236,0.5,72.2460879505123
CBC_1064,CBC_1064_MSI_AV_v3_Vset3_Aset3_2024-01-28_11h09.57.594.csv,3,19,1,3,b,1,0,3,aud,B,27,1,1B,3B,1,0,b,1.54554380000081,1,0,1,1,1B,3B,B13,2.83321334405622,0.853425119613103,0.332149180842346,0.5,0.5,0.220646156668483,0.667850819157654,0.5,0.332149180842346,0.5,0.5,0.902630547094854,0.332149180842346,0.5,0.332149180842346,0.5,0.754487994531683,0.801701239172781,0.198298760827219,0.667850819157654,0.332149180842346,0.504845842547642,0.73673258402833,0.332149180842346,0.111503024173863,0.5,0.335701638315308,1.084375,0.701585679152242,2.42186735532236,0.5,72.2460879505123
CBC_1064,CBC_1064_MSI_AV_v3_Vset3_Aset3_2024-01-28_11h09.57.594.csv,3,20,3,0,b,1,0,0,aud,D,9,1,3D,0D,1,0,b,2.4810733000013,1,0,1,1,3D,0D,D30,3.55534806148941,0.853425119613103,0.332149180842346,0.5,0.5,0.220646156668483,0.779353843331517,0.5,0.332149180842346,0.5,0.5,0.902630547094854,0.332149180842346,0.5,0.332149180842346,0.5,0.754487994531683,0.754487994531683,0.245512005468317,0.754487994531683,0.5,0.232990101217479,0.703358917400882,0.245512005468317,0.0824187824617909,0.5,0.335701638315308,1.084375,0.701585679152242,2.42186735532236,0.5,72.2460879505123
CBC_1064,CBC_1064_MSI_AV_v3_Vset3_Aset3_2024-01-28_11h09.57.594.csv,3,21,0,1,z,0,1,3,aud,B,63,1,0B,1B,0,1,z,1.40463799999998,0,1,1,1,1B,0B,B01,2.484906649788,0.853425119613103,0.332149180842346,0.5,0.5,0.220646156668483,0.779353843331517,0.5,0.332149180842346,0.5,0.5,0.902630547094854,0.332149180842346,0.5,0.332149180842346,0.5,0.836906776993474,0.925794203887951,0.0742057961120492,0.779353843331517,0.220646156668483,0.525610331279228,0.809317174121088,0.220646156668483,0.0740712762815858,0.5,0.335701638315308,1.084375,0.701585679152242,2.42186735532236,0.5,72.2460879505123
CBC_1064,CBC_1064_MSI_AV_v3_Vset3_Aset3_2024-01-28_11h09.57.594.csv,3,22,0,1,b,1,0,2,aud,A,63,1,0A,1A,1,0,b,1.7098563999989,1,0,1,1,0A,1A,A01,2.91777073208428,0.853425119613103,0.332149180842346,0.5,0.5,0.220646156668483,0.853425119613103,0.5,0.332149180842346,0.5,0.5,0.902630547094854,0.332149180842346,0.5,0.332149180842346,0.5,0.836906776993474,0.92130430920905,0.0786956907909496,0.853425119613103,0.332149180842346,0.554635301866825,0.807225630942913,0.146574880386897,0.0492054274817517,0.5,0.335701638315308,1.084375,0.701585679152242,2.42186735532236,0.5,72.2460879505123
CBC_1064,CBC_1064_MSI_AV_v3_Vset3_Aset3_2024-01-28_11h09.57.594.csv,3,23,3,2,z,0,1,1,aud,C,63,1,3C,2C,0,1,b,2.98898580000059,1,0,0,0,3C,2C,C32,2.94443897916644,0.902630547094854,0.332149180842346,0.5,0.5,0.220646156668483,0.853425119613103,0.5,0.332149180842346,0.5,0.5,0.902630547094854,0.332149180842346,0.5,0.332149180842346,0.5,0.836906776993474,0.0509178693229101,0.94908213067709,0.332149180842346,0.902630547094854,0.0345114995947798,0.178784661962377,-0.332149180842346,-0.111503024173863,0.5,0.335701638315308,1.084375,0.701585679152242,2.42186735532236,0.5,72.2460879505123
CBC_1064,CBC_1064_MSI_AV_v3_Vset3_Aset3_2024-01-28_11h09.57.594.csv,3,24,2,0,z,0,1,2,aud,A,27,1,2A,0A,0,1,z,2.52415990000009,0,1,1,1,0A,2A,A20,2.56494935746154,0.902630547094854,0.332149180842346,0.5,0.5,0.220646156668483,0.853425119613103,0.5,0.332149180842346,0.5,0.5,0.902630547094854,0.220646156668483,0.5,0.332149180842346,0.5,0.836906776993474,0.902630547094854,0.0973694529051455,0.902630547094854,0.5,0.251119720771339,0.796798974056248,0.0973694529051455,0.0326870848621226,0.5,0.335701638315308,1.084375,0.701585679152242,2.42186735532236,0.5,72.2460879505123
CBC_1064,CBC_1064_MSI_AV_v3_Vset3_Aset3_2024-01-28_11h09.57.594.csv,3,25,0,1,z,0,1,3,aud,B,63,1,0B,1B,0,1,z,1.52382399999988,0,1,1,1,1B,0B,B01,2.30258509299405,0.935317631956977,0.332149180842346,0.5,0.5,0.220646156668483,0.853425119613103,0.5,0.332149180842346,0.5,0.5,0.902630547094854,0.220646156668483,0.5,0.332149180842346,0.5,0.836906776993474,0.953630140361022,0.0463698596389776,0.853425119613103,0.220646156668483,0.618123620706689,0.82361001534184,0.146574880386897,0.0492054274817517,0.5,0.335701638315308,1.084375,0.701585679152242,2.42186735532236,0.5,72.2460879505123
CBC_1064,CBC_1064_MSI_AV_v3_Vset3_Aset3_2024-01-28_11h09.57.594.csv,3,26,3,2,b,1,0,0,aud,D,63,1,3D,2D,1,0,b,2.9882822999989,1,0,1,1,3D,2D,D32,3.02042488614436,0.935317631956977,0.332149180842346,0.5,0.5,0.220646156668483,0.902630547094854,0.5,0.332149180842346,0.5,0.5,0.902630547094854,0.220646156668483,0.5,0.332149180842346,0.5,0.836906776993474,0.836906776993474,0.163093223006526,0.836906776993474,0.5,0.154611023586827,0.758048789294347,0.163093223006526,0.0547506621614147,0.5,0.335701638315308,1.084375,0.701585679152242,2.42186735532236,0.5,72.2460879505123
CBC_1064,CBC_1064_MSI_AV_v3_Vset3_Aset3_2024-01-28_11h09.57.594.csv,3,27,2,1,z,0,1,3,aud,B,9,1,2B,1B,0,1,b,1.30580849999933,1,0,0,0,2B,1B,B21,3.73766961828337,0.935317631956977,0.332149180842346,0.5,0.5,0.220646156668483,0.902630547094854,0.5,0.332149180842346,0.5,0.5,0.902630547094854,0.220646156668483,0.5,0.332149180842346,0.5,0.891657439154888,0.0973694529051455,0.902630547094854,0.5,0.902630547094854,0.0821969504107287,0.202313006058775,-0.5,-0.167850819157654,0.5,0.335701638315308,1.084375,0.701585679152242,2.42186735532236,0.5,72.2460879505123
CBC_1064,CBC_1064_MSI_AV_v3_Vset3_Aset3_2024-01-28_11h09.57.594.csv,3,28,3,1,b,1,0,0,aud,D,27,1,3D,1D,1,0,b,1.65397130000019,1,0,1,1,3D,1D,D31,3.76120011569356,0.935317631956977,0.332149180842346,0.5,0.5,0.220646156668483,0.902630547094854,0.332149180842346,0.332149180842346,0.5,0.5,0.902630547094854,0.220646156668483,0.5,0.332149180842346,0.5,0.891657439154888,0.94301341241426,0.0569865875857404,0.891657439154888,0.332149180842346,0.590089028045426,0.818569618435266,0.108342560845112,0.0363707751749799,0.5,0.335701638315308,1.084375,0.701585679152242,2.42186735532236,0.5,72.2460879505123
CBC_1064,CBC_1064_MSI_AV_v3_Vset3_Aset3_2024-01-28_11h09.57.594.csv,3,29,0,1,b,1,0,2,aud,A,63,1,0A,1A,1,0,b,2.05169749999914,1,0,1,1,0A,1A,A01,2.68557734525015,0.935317631956977,0.332149180842346,0.5,0.5,0.220646156668483,0.902630547094854,0.332149180842346,0.332149180842346,0.5,0.5,0.902630547094854,0.220646156668483,0.5,0.332149180842346,0.5,0.928028214329868,0.966749774728674,0.0332502252713256,0.935317631956977,0.332149180842346,0.424535920752792,0.830243092399678,0.064682368043023,0.0217139769221565,0.5,0.335701638315308,1.084375,0.701585679152242,2.42186735532236,0.5,72.2460879505123
CBC_1064,CBC_1064_MSI_AV_v3_Vset3_Aset3_2024-01-28_11h09.57.594.csv,3,30,1,0,z,0,1,2,aud,A,63,1,1A,0A,0,1,z,2.76572289999967,0,1,1,1,0A,1A,A10,3.11351530921037,0.957031608879134,0.332149180842346,0.5,0.5,0.220646156668483,0.902630547094854,0.332149180842346,0.332149180842346,0.5,0.5,0.902630547094854,0.220646156668483,0.5,0.332149180842346,0.5,0.928028214329868,0.97815833738315,0.0218416626168502,0.957031608879134,0.332149180842346,0.200920069520641,0.835829672188139,0.0429683911208665,0.0144245592950478,0.5,0.335701638315308,1.084375,0.701585679152242,2.42186735532236,0.5,72.2460879505123
CBC_1064,CBC_1064_MSI_AV_v3_Vset3_Aset3_2024-01-28_11h09.57.594.csv,3,31,2,0,b,1,0,1,aud,C,27,1,2C,0C,1,0,b,1.45638679999865,1,0,1,1,2C,0C,C20,3.13549421592915,0.971456168174181,0.332149180842346,0.5,0.5,0.220646156668483,0.902630547094854,0.332149180842346,0.332149180842346,0.5,0.5,0.902630547094854,0.220646156668483,0.5,0.332149180842346,0.5,0.928028214329868,0.902630547094854,0.0973694529051455,0.902630547094854,0.5,0.554012364325802,0.797030727761432,0.0973694529051455,0.0326870848621226,0.5,0.335701638315308,1.084375,0.701585679152242,2.42186735532236,0.5,72.2460879505123
CBC_1064,CBC_1064_MSI_AV_v3_Vset3_Aset3_2024-01-28_11h09.57.594.csv,3,32,0,1,b,1,0,2,aud,A,63,1,0A,1A,1,0,b,1.84796039999856,1,0,1,1,0A,1A,A01,2.46385324059017,0.971456168174181,0.332149180842346,0.5,0.5,0.220646156668483,0.902630547094854,0.332149180842346,0.332149180842346,0.5,0.5,0.935317631956977,0.220646156668483,0.5,0.332149180842346,0.5,0.928028214329868,0.985597353051464,0.014402646948536,0.971456168174181,0.332149180842346,0.528492828367482,0.838418815237881,0.0285438318258187,0.00958221110772395,0.5,0.335701638315308,1.084375,0.701585679152242,2.42186735532236,0.5,72.2460879505123
CBC_1064,CBC_1064_MSI_AV_v3_Vset3_Aset3_2024-01-28_11h09.57.594.csv,3,33,0,1,z,0,1,3,aud,B,63,1,0B,1B,0,1,z,1.5006087999991,0,1,1,1,1B,0B,B01,2.26176309847379,0.981038379281905,0.332149180842346,0.5,0.5,0.220646156668483,0.902630547094854,0.332149180842346,0.332149180842346,0.5,0.5,0.935317631956977,0.220646156668483,0.5,0.332149180842346,0.5,0.928028214329868,0.97036469669848,0.0296353033015203,0.902630547094854,0.220646156668483,0.627733403907263,0.83181693561606,0.0973694529051455,0.0326870848621226,0.5,0.335701638315308,1.084375,0.701585679152242,2.42186735532236,0.5,72.2460879505123
CBC_1064,CBC_1064_MSI_AV_v3_Vset3_Aset3_2024-01-28_11h09.57.594.csv,3,34,2,3,z,0,1,0,aud,D,63,1,2D,3D,0,1,b,2.65425500000129,1,0,0,0,2D,3D,D23,2.50552593699074,0.981038379281905,0.332149180842346,0.5,0.5,0.220646156668483,0.935317631956977,0.332149180842346,0.332149180842346,0.5,0.5,0.935317631956977,0.220646156668483,0.5,0.332149180842346,0.5,0.928028214329868,0.0719717856701316,0.928028214329868,0.5,0.928028214329868,0.052084036620705,0.189428902418634,-0.5,-0.167850819157654,0.5,0.335701638315308,1.084375,0.701585679152242,2.42186735532236,0.5,72.2460879505123
CBC_1064,CBC_1064_MSI_AV_v3_Vset3_Aset3_2024-01-28_11h09.57.594.csv,3,35,1,3,b,1,0,3,aud,B,27,1,1B,3B,1,0,b,1.24216089999936,1,0,1,1,1B,3B,B13,2.81341071676004,0.981038379281905,0.332149180842346,0.5,0.5,0.220646156668483,0.935317631956977,0.332149180842346,0.332149180842346,0.5,0.5,0.935317631956977,0.220646156668483,0.5,0.332149180842346,0.332149180842346,0.928028214329868,0.966749774728674,0.0332502252713256,0.935317631956977,0.332149180842346,0.15803530781354,0.83015941467998,0.064682368043023,0.0217139769221565,0.5,0.335701638315308,1.084375,0.701585679152242,2.42186735532236,0.5,72.2460879505123
CBC_1064,CBC_1064_MSI_AV_v3_Vset3_Aset3_2024-01-28_11h09.57.594.csv,3,36,2,3,b,1,0,1,aud,C,63,1,2C,3C,1,0,b,3.76420719999987,1,0,1,1,2C,3C,C23,2.83321334405622,0.981038379281905,0.332149180842346,0.5,0.5,0.220646156668483,0.957031608879134,0.332149180842346,0.332149180842346,0.5,0.5,0.935317631956977,0.220646156668483,0.5,0.332149180842346,0.332149180842346,0.928028214329868,0.98079706408588,0.0192029359141203,0.935317631956977,0.220646156668483,0.0690856191668507,0.836988967254967,0.064682368043023,0.0217139769221565,0.5,0.335701638315308,1.084375,0.701585679152242,2.42186735532236,0.5,72.2460879505123
CBC_1064,CBC_1064_MSI_AV_v3_Vset3_Aset3_2024-01-28_11h09.57.594.csv,3,37,0,2,z,0,1,1,aud,C,27,1,0C,2C,0,1,b,2.89073260000077,1,0,0,0,0C,2C,C02,3.95124371858143,0.981038379281905,0.332149180842346,0.5,0.5,0.220646156668483,0.957031608879134,0.332149180842346,0.332149180842346,0.5,0.5,0.957031608879134,0.220646156668483,0.5,0.332149180842346,0.332149180842346,0.928028214329868,0.0429683911208665,0.957031608879134,0.5,0.957031608879134,0.0371345051752484,0.174474457921605,-0.5,-0.167850819157654,0.5,0.335701638315308,1.084375,0.701585679152242,2.42186735532236,0.5,72.2460879505123
CBC_1064,CBC_1064_MSI_AV_v3_Vset3_Aset3_2024-01-28_11h09.57.594.csv,3,38,0,1,z,0,1,3,aud,B,63,1,0B,1B,0,1,b,3.47260319999987,1,0,0,0,0B,1B,B01,2.17853244432407,0.981038379281905,0.332149180842346,0.5,0.5,0.220646156668483,0.957031608879134,0.332149180842346,0.332149180842346,0.332149180842346,0.5,0.957031608879134,0.220646156668483,0.5,0.332149180842346,0.332149180842346,0.928028214329868,0.0125515947553579,0.987448405244642,0.220646156668483,0.957031608879134,0.0179263551313471,0.160123604067965,-0.220646156668483,-0.0740712762815858,0.5,0.335701638315308,1.084375,0.701585679152242,2.42186735532236,0.5,72.2460879505123
CBC_1064,CBC_1064_MSI_AV_v3_Vset3_Aset3_2024-01-28_11h09.57.594.csv,3,39,0,3,b,1,0,2,aud,A,9,1,0A,3A,1,0,b,2.40277050000077,1,0,1,1,0A,3A,A03,3.98898404656427,0.981038379281905,0.332149180842346,0.5,0.5,0.146574880386897,0.957031608879134,0.332149180842346,0.332149180842346,0.332149180842346,0.5,0.957031608879134,0.220646156668483,0.5,0.332149180842346,0.332149180842346,0.928028214329868,0.981038379281905,0.0189616207180947,0.981038379281905,0.5,0.296104767631176,0.836723235135989,0.0189616207180947,0.00636544714017788,0.5,0.335701638315308,1.084375,0.701585679152242,2.42186735532236,0.5,72.2460879505123
CBC_1064,CBC_1064_MSI_AV_v3_Vset3_Aset3_2024-01-28_11h09.57.594.csv,3,40,2,3,b,1,0,1,aud,C,63,0,2C,3C,0,1,b,2.51160849999906,1,0,1,0,2C,3C,C23,2.62103882411258,0.987403826422083,0.332149180842346,0.5,0.5,0.146574880386897,0.957031608879134,0.332149180842346,0.332149180842346,0.332149180842346,0.5,0.957031608879134,0.220646156668483,0.5,0.332149180842346,0.332149180842346,0.928028214329868,0.987448405244642,0.0125515947553578,0.957031608879134,0.220646156668483,0.264182469332262,0.839508592292765,-0.957031608879134,-0.32127707902026,0.5,0.335701638315308,1.084375,0.701585679152242,2.42186735532236,0.5,72.2460879505123
CBC_1064,CBC_1064_MSI_AV_v3_Vset3_Aset3_2024-01-28_11h09.57.594.csv,3,41,0,1,b,1,0,2,aud,A,63,1,0A,1A,1,0,b,1.8403402999993,1,0,1,1,0A,1A,A01,2.41591377830105,0.987403826422083,0.332149180842346,0.5,0.5,0.146574880386897,0.957031608879134,0.332149180842346,0.332149180842346,0.332149180842346,0.5,0.635754529858873,0.220646156668483,0.5,0.332149180842346,0.332149180842346,0.928028214329868,0.993695496717639,0.00630450328236087,0.987403826422083,0.332149180842346,0.536631129961733,0.842196877904717,0.0125961735779169,0.00422855610661069,0.5,0.335701638315308,1.084375,0.701585679152242,2.42186735532236,0.5,72.2460879505123
CBC_1064,CBC_1064_MSI_AV_v3_Vset3_Aset3_2024-01-28_11h09.57.594.csv,3,42,2,3,z,0,1,0,aud,D,63,1,2D,3D,0,1,z,2.77493250000043,0,1,1,1,3D,2D,D23,2.43361335540045,0.991632382528694,0.332149180842346,0.5,0.5,0.146574880386897,0.957031608879134,0.332149180842346,0.332149180842346,0.332149180842346,0.5,0.635754529858873,0.220646156668483,0.5,0.332149180842346,0.332149180842346,0.928028214329868,0.962861970681517,0.0371380293184835,0.928028214329868,0.332149180842346,0.198556830375637,0.82854102661058,0.0719717856701316,0.0241610463619414,0.5,0.335701638315308,1.084375,0.701585679152242,2.42186735532236,0.5,72.2460879505123
CBC_1064,CBC_1064_MSI_AV_v3_Vset3_Aset3_2024-01-28_11h09.57.594.csv,3,43,3,2,z,0,1,1,aud,C,63,1,3C,2C,0,1,z,1.93547560000115,0,1,1,1,2C,3C,C32,2.96183072187831,0.991632382528694,0.332149180842346,0.5,0.5,0.146574880386897,0.957031608879134,0.332149180842346,0.332149180842346,0.332149180842346,0.5,0.635754529858873,0.220646156668483,0.5,0.332149180842346,0.332149180842346,0.95218926069181,0.860432807313178,0.139567192686822,0.635754529858873,0.220646156668483,0.429146718283081,0.773285106131309,0.364245470141127,0.122277801075306,0.5,0.335701638315308,1.084375,0.701585679152242,2.42186735532236,0.5,72.2460879505123
CBC_1064,CBC_1064_MSI_AV_v3_Vset3_Aset3_2024-01-28_11h09.57.594.csv,3,44,3,1,b,1,0,0,aud,D,27,1,3D,1D,1,0,b,1.88339780000024,1,0,1,1,3D,1D,D31,3.38439026334577,0.991632382528694,0.332149180842346,0.5,0.5,0.146574880386897,0.957031608879134,0.332149180842346,0.332149180842346,0.332149180842346,0.5,0.758032330934179,0.220646156668483,0.5,0.332149180842346,0.332149180842346,0.95218926069181,0.975636266591745,0.0243637334082549,0.95218926069181,0.332149180842346,0.506626385450091,0.834457046283685,0.0478107393081902,0.0160501435148256,0.5,0.335701638315308,1.084375,0.701585679152242,2.42186735532236,0.5,72.2460879505123
