ID,filename,session,trial,visStimLeft,visStimRight,correctKey,leftCorrect,rightCorrect,secondStim,mod2Type,mod2Stim,frequency,rewardAccurate,stimPairLeft,stimPairRight,pCorrectLeft,pCorrectRight,key,reactionTime,choiceLeft,choiceRight,choiceAccurate,reward,chosenPair,otherPair,triplet,surprise,0A belief,1A belief,2A belief,3A belief,0B belief,1B belief,2B belief,3B belief,0C belief,1C belief,2C belief,3C belief,0D belief,1D belief,2D belief,3D belief,beliefPairNorm,beliefOtherPairNorm,beliefPair,beliefOtherPair,lik,corrLik,rewardPE,update2,fitCBCsimpleRW_CBCdriftDiffusionLR_startBelief,fitCBCsimpleRW_CBCdriftDiffusionLR_alpha1,fitCBCsimpleRW_CBCdriftDiffusionLR_nonDecisionTime,fitCBCsimpleRW_CBCdriftDiffusionLR_weight,fitCBCsimpleRW_CBCdriftDiffusionLR_startingBoundary,fitCBCsimpleRW_CBCdriftDiffusionLR_startingPoint,fit_CBCsimpleRW_CBCdriftDiffusionLR_NLL
CBC_1019,CBC_1019_MSI_AV_v3_Vset2_Aset1_2023-06-28_16h08.36.821.csv,1,1,1,0,b,1,0,0,aud,B,63,1,1B,0B,1,0,b,2.33564939999997,1,0,1,1,1B,0B,B10,2.77258872223978,0.5,0.5,0.5,0.5,0.5,0.5,0.5,0.5,0.5,0.5,0.5,0.5,0.5,0.5,0.5,0.5,0.5,0.5,0.5,0.5,0.150079850957712,0.500379840211491,0.5,0.0203818565107682,0.5,0.0407637130215364,0.87128924652449,7.24517280756524,2.26972798145463,0.5,63.0281118815181
CBC_1019,CBC_1019_MSI_AV_v3_Vset2_Aset1_2023-06-28_16h08.36.821.csv,1,2,0,1,b,1,0,3,aud,A,63,1,0A,1A,1,0,b,1.82308010000088,1,0,1,1,0A,1A,A01,2.83321334405622,0.5,0.5,0.5,0.5,0.5,0.520381856510768,0.5,0.5,0.5,0.5,0.5,0.5,0.5,0.5,0.5,0.5,0.5,0.5,0.5,0.5,0.244412493229391,0.499729069509137,0.5,0.0203818565107682,0.5,0.0407637130215364,0.87128924652449,7.24517280756524,2.26972798145463,0.5,63.0281118815181
CBC_1019,CBC_1019_MSI_AV_v3_Vset2_Aset1_2023-06-28_16h08.36.821.csv,1,3,1,2,z,0,1,1,aud,C,9,1,1C,2C,0,1,z,1.29270270000052,0,1,1,1,2C,1C,C12,2.89037175789616,0.520381856510768,0.5,0.5,0.5,0.5,0.520381856510768,0.5,0.5,0.5,0.5,0.5,0.5,0.5,0.5,0.5,0.5,0.5,0.5,0.5,0.5,0.358810024975051,0.499679051472252,0.5,0.0203818565107682,0.5,0.0407637130215364,0.87128924652449,7.24517280756524,2.26972798145463,0.5,63.0281118815181
CBC_1019,CBC_1019_MSI_AV_v3_Vset2_Aset1_2023-06-28_16h08.36.821.csv,1,4,1,0,z,0,1,3,aud,A,63,1,1A,0A,0,1,z,2.29409770000166,0,1,1,1,0A,1A,A10,2.94443897916644,0.520381856510768,0.5,0.5,0.5,0.5,0.520381856510768,0.5,0.5,0.5,0.5,0.520381856510768,0.5,0.5,0.5,0.5,0.5,0.509987367170789,0.490012632829211,0.520381856510768,0.5,0.181100789128708,0.58110301601462,0.479618143489232,0.0195510163611171,0.5,0.0407637130215364,0.87128924652449,7.24517280756524,2.26972798145463,0.5,63.0281118815181
CBC_1019,CBC_1019_MSI_AV_v3_Vset2_Aset1_2023-06-28_16h08.36.821.csv,1,5,3,1,b,1,0,2,aud,D,27,1,3D,1D,1,0,b,1.74243840000054,1,0,1,1,3D,1D,D31,2.99573227355399,0.539932872871885,0.5,0.5,0.5,0.5,0.520381856510768,0.5,0.5,0.5,0.5,0.520381856510768,0.5,0.5,0.5,0.5,0.5,0.5,0.5,0.5,0.5,0.26356865479943,0.499708311455936,0.5,0.0203818565107682,0.5,0.0407637130215364,0.87128924652449,7.24517280756524,2.26972798145463,0.5,63.0281118815181
CBC_1019,CBC_1019_MSI_AV_v3_Vset2_Aset1_2023-06-28_16h08.36.821.csv,1,6,0,1,z,0,1,0,aud,B,63,1,0B,1B,0,1,z,1.7200969000005,0,1,1,1,1B,0B,B01,3.04452243772342,0.539932872871885,0.5,0.5,0.5,0.5,0.520381856510768,0.5,0.5,0.5,0.5,0.520381856510768,0.5,0.5,0.5,0.5,0.520381856510768,0.509987367170789,0.490012632829211,0.520381856510768,0.5,0.314022734542057,0.580584825110202,0.479618143489232,0.0195510163611171,0.5,0.0407637130215364,0.87128924652449,7.24517280756524,2.26972798145463,0.5,63.0281118815181
CBC_1019,CBC_1019_MSI_AV_v3_Vset2_Aset1_2023-06-28_16h08.36.821.csv,1,7,2,3,b,1,0,1,aud,C,63,1,2C,3C,1,0,z,2.26871410000058,0,1,0,0,3C,2C,C23,3.09104245335832,0.539932872871885,0.5,0.5,0.5,0.5,0.539932872871885,0.5,0.5,0.5,0.5,0.520381856510768,0.5,0.5,0.5,0.5,0.520381856510768,0.490012632829211,0.509987367170789,0.5,0.520381856510768,0.133733277084135,0.41870251876701,-0.5,-0.0203818565107682,0.5,0.0407637130215364,0.87128924652449,7.24517280756524,2.26972798145463,0.5,63.0281118815181
CBC_1019,CBC_1019_MSI_AV_v3_Vset2_Aset1_2023-06-28_16h08.36.821.csv,1,8,2,0,z,0,1,3,aud,A,27,1,2A,0A,0,1,b,1.8902577000008,1,0,0,0,2A,0A,A20,3.13549421592915,0.539932872871885,0.5,0.5,0.5,0.5,0.539932872871885,0.5,0.5,0.5,0.5,0.520381856510768,0.479618143489232,0.5,0.5,0.5,0.520381856510768,0.480800264173972,0.519199735826028,0.5,0.539932872871885,0.160880952499882,0.347164164008699,-0.5,-0.0203818565107682,0.5,0.0407637130215364,0.87128924652449,7.24517280756524,2.26972798145463,0.5,63.0281118815181
CBC_1019,CBC_1019_MSI_AV_v3_Vset2_Aset1_2023-06-28_16h08.36.821.csv,1,9,3,2,b,1,0,2,aud,D,63,1,3D,2D,1,0,b,1.84180440000091,1,0,1,1,3D,2D,D32,3.17805383034795,0.539932872871885,0.5,0.479618143489232,0.5,0.5,0.539932872871885,0.5,0.5,0.5,0.5,0.520381856510768,0.479618143489232,0.5,0.5,0.5,0.520381856510768,0.509987367170789,0.490012632829211,0.520381856510768,0.5,0.280109329516014,0.581038006889219,0.479618143489232,0.0195510163611171,0.5,0.0407637130215364,0.87128924652449,7.24517280756524,2.26972798145463,0.5,63.0281118815181
CBC_1019,CBC_1019_MSI_AV_v3_Vset2_Aset1_2023-06-28_16h08.36.821.csv,1,10,3,1,z,0,1,0,aud,B,27,1,3B,1B,0,1,z,1.40432519999922,0,1,1,1,1B,3B,B31,3.2188758248682,0.539932872871885,0.5,0.479618143489232,0.5,0.5,0.539932872871885,0.5,0.5,0.5,0.5,0.520381856510768,0.479618143489232,0.5,0.5,0.5,0.539932872871885,0.519199735826028,0.480800264173972,0.539932872871885,0.5,0.466735424224541,0.652751413298759,0.460067127128115,0.0187540443408932,0.5,0.0407637130215364,0.87128924652449,7.24517280756524,2.26972798145463,0.5,63.0281118815181
CBC_1019,CBC_1019_MSI_AV_v3_Vset2_Aset1_2023-06-28_16h08.36.821.csv,1,11,3,2,z,0,1,1,aud,C,63,1,3C,2C,0,1,b,1.7543998000001,1,0,0,0,3C,2C,C32,3.25809653802148,0.539932872871885,0.5,0.479618143489232,0.5,0.5,0.558686917212778,0.5,0.5,0.5,0.5,0.520381856510768,0.479618143489232,0.5,0.5,0.5,0.539932872871885,0.479618143489232,0.520381856510768,0.479618143489232,0.520381856510768,0.179942414894793,0.339350207029266,-0.479618143489232,-0.0195510163611171,0.5,0.0407637130215364,0.87128924652449,7.24517280756524,2.26972798145463,0.5,63.0281118815181
CBC_1019,CBC_1019_MSI_AV_v3_Vset2_Aset1_2023-06-28_16h08.36.821.csv,1,12,1,3,b,1,0,0,aud,B,27,1,1B,3B,1,0,b,1.27241620000132,1,0,1,1,1B,3B,B13,3.29583686600433,0.539932872871885,0.5,0.479618143489232,0.5,0.5,0.558686917212778,0.5,0.5,0.5,0.5,0.520381856510768,0.460067127128115,0.5,0.5,0.5,0.539932872871885,0.527716842561578,0.472283157438422,0.558686917212778,0.5,0.546310291544628,0.713124763366172,0.441313082787222,0.0179895598593878,0.5,0.0407637130215364,0.87128924652449,7.24517280756524,2.26972798145463,0.5,63.0281118815181
CBC_1019,CBC_1019_MSI_AV_v3_Vset2_Aset1_2023-06-28_16h08.36.821.csv,1,13,3,2,z,0,1,1,aud,C,63,1,3C,2C,0,1,b,1.64404560000003,1,0,0,0,3C,2C,C32,2.63905732961526,0.539932872871885,0.5,0.479618143489232,0.5,0.5,0.576676477072166,0.5,0.5,0.5,0.5,0.520381856510768,0.460067127128115,0.5,0.5,0.5,0.539932872871885,0.469241270892648,0.530758729107352,0.460067127128115,0.520381856510768,0.161300950992756,0.266954291199311,-0.460067127128115,-0.0187540443408932,0.5,0.0407637130215364,0.87128924652449,7.24517280756524,2.26972798145463,0.5,63.0281118815181
CBC_1019,CBC_1019_MSI_AV_v3_Vset2_Aset1_2023-06-28_16h08.36.821.csv,1,14,3,2,b,1,0,2,aud,D,63,1,3D,2D,1,0,b,1.30003730000135,1,0,1,1,3D,2D,D32,2.67414864942653,0.539932872871885,0.5,0.479618143489232,0.5,0.5,0.576676477072166,0.5,0.5,0.5,0.5,0.520381856510768,0.441313082787222,0.5,0.5,0.5,0.539932872871885,0.519199735826028,0.480800264173972,0.539932872871885,0.5,0.48396177310808,0.65240425201795,0.460067127128115,0.0187540443408932,0.5,0.0407637130215364,0.87128924652449,7.24517280756524,2.26972798145463,0.5,63.0281118815181
CBC_1019,CBC_1019_MSI_AV_v3_Vset2_Aset1_2023-06-28_16h08.36.821.csv,1,15,0,3,b,1,0,3,aud,A,9,1,0A,3A,1,0,b,1.01821670000027,1,0,1,1,0A,3A,A03,3.40119738166216,0.539932872871885,0.5,0.479618143489232,0.5,0.5,0.576676477072166,0.5,0.5,0.5,0.5,0.520381856510768,0.441313082787222,0.5,0.5,0.5,0.558686917212778,0.519199735826028,0.480800264173972,0.539932872871885,0.5,0.136682800352481,0.65206569326066,0.460067127128115,0.0187540443408932,0.5,0.0407637130215364,0.87128924652449,7.24517280756524,2.26972798145463,0.5,63.0281118815181
CBC_1019,CBC_1019_MSI_AV_v3_Vset2_Aset1_2023-06-28_16h08.36.821.csv,1,16,0,1,z,0,1,0,aud,B,63,0,0B,1B,1,0,z,1.20072680000158,0,1,1,0,1B,0B,B01,2.7408400239252,0.558686917212778,0.5,0.479618143489232,0.5,0.5,0.576676477072166,0.5,0.5,0.5,0.5,0.520381856510768,0.441313082787222,0.5,0.5,0.5,0.558686917212778,0.535607946632527,0.464392053367473,0.576676477072166,0.5,0.582591744200994,0.763184915509395,-0.576676477072166,-0.0235074744176404,0.5,0.0407637130215364,0.87128924652449,7.24517280756524,2.26972798145463,0.5,63.0281118815181
CBC_1019,CBC_1019_MSI_AV_v3_Vset2_Aset1_2023-06-28_16h08.36.821.csv,1,17,2,3,z,0,1,2,aud,D,63,1,2D,3D,0,1,b,1.70221719999972,1,0,0,0,2D,3D,D23,3.46573590279973,0.558686917212778,0.5,0.479618143489232,0.5,0.5,0.553169002654526,0.5,0.5,0.5,0.5,0.520381856510768,0.441313082787222,0.5,0.5,0.5,0.558686917212778,0.472283157438422,0.527716842561578,0.5,0.558686917212778,0.162545374804664,0.287217271371917,-0.5,-0.0203818565107682,0.5,0.0407637130215364,0.87128924652449,7.24517280756524,2.26972798145463,0.5,63.0281118815181
CBC_1019,CBC_1019_MSI_AV_v3_Vset2_Aset1_2023-06-28_16h08.36.821.csv,1,18,0,2,z,0,1,1,aud,C,27,1,0C,2C,0,1,z,1.3793551000017,0,1,1,1,2C,0C,C02,3.49650756146648,0.558686917212778,0.5,0.479618143489232,0.5,0.5,0.553169002654526,0.5,0.5,0.5,0.5,0.520381856510768,0.441313082787222,0.5,0.5,0.479618143489232,0.558686917212778,0.509987367170789,0.490012632829211,0.520381856510768,0.5,0.412670817800667,0.581531696728634,0.479618143489232,0.0195510163611171,0.5,0.0407637130215364,0.87128924652449,7.24517280756524,2.26972798145463,0.5,63.0281118815181
CBC_1019,CBC_1019_MSI_AV_v3_Vset2_Aset1_2023-06-28_16h08.36.821.csv,1,19,0,1,b,1,0,3,aud,A,63,1,0A,1A,1,0,b,2.16458899999998,1,0,1,1,0A,1A,A01,2.83321334405622,0.558686917212778,0.5,0.479618143489232,0.5,0.5,0.553169002654526,0.5,0.5,0.5,0.5,0.539932872871885,0.441313082787222,0.5,0.5,0.479618143489232,0.558686917212778,0.527716842561578,0.472283157438422,0.558686917212778,0.5,0.251216377322838,0.713830641127795,0.441313082787222,0.0179895598593878,0.5,0.0407637130215364,0.87128924652449,7.24517280756524,2.26972798145463,0.5,63.0281118815181
CBC_1019,CBC_1019_MSI_AV_v3_Vset2_Aset1_2023-06-28_16h08.36.821.csv,1,20,1,0,b,1,0,0,aud,B,63,1,1B,0B,1,0,b,2.21095310000055,1,0,1,1,1B,0B,B10,2.86220088092947,0.576676477072166,0.5,0.479618143489232,0.5,0.5,0.553169002654526,0.5,0.5,0.5,0.5,0.539932872871885,0.441313082787222,0.5,0.5,0.479618143489232,0.558686917212778,0.525242388695695,0.474757611304305,0.553169002654526,0.5,0.234014604267204,0.696477678840339,0.446830997345474,0.0182144905449178,0.5,0.0407637130215364,0.87128924652449,7.24517280756524,2.26972798145463,0.5,63.0281118815181
CBC_1019,CBC_1019_MSI_AV_v3_Vset2_Aset1_2023-06-28_16h08.36.821.csv,1,21,1,3,z,0,1,2,aud,D,27,1,1D,3D,0,1,b,3.91199170000073,1,0,0,0,1D,3D,D13,3.58351893845611,0.576676477072166,0.5,0.479618143489232,0.5,0.5,0.571383493199444,0.5,0.5,0.5,0.5,0.539932872871885,0.441313082787222,0.5,0.5,0.479618143489232,0.558686917212778,0.472283157438422,0.527716842561578,0.5,0.558686917212778,0.0164772604689837,0.287178603284321,-0.5,-0.0203818565107682,0.5,0.0407637130215364,0.87128924652449,7.24517280756524,2.26972798145463,0.5,63.0281118815181
CBC_1019,CBC_1019_MSI_AV_v3_Vset2_Aset1_2023-06-28_16h08.36.821.csv,1,22,3,2,z,0,1,1,aud,C,63,1,3C,2C,0,1,z,2.28224399999999,0,1,1,1,2C,3C,C32,2.51230562397611,0.576676477072166,0.5,0.479618143489232,0.5,0.5,0.571383493199444,0.5,0.5,0.5,0.5,0.539932872871885,0.441313082787222,0.5,0.479618143489232,0.479618143489232,0.558686917212778,0.550252329457205,0.449747670542794,0.539932872871885,0.441313082787222,0.248040215281382,0.838526368799025,0.460067127128115,0.0187540443408932,0.5,0.0407637130215364,0.87128924652449,7.24517280756524,2.26972798145463,0.5,63.0281118815181
CBC_1019,CBC_1019_MSI_AV_v3_Vset2_Aset1_2023-06-28_16h08.36.821.csv,1,23,0,1,b,1,0,3,aud,A,63,1,0A,1A,1,0,b,2.19420220000029,1,0,1,1,0A,1A,A01,2.53897387105828,0.576676477072166,0.5,0.479618143489232,0.5,0.5,0.571383493199444,0.5,0.5,0.5,0.5,0.558686917212778,0.441313082787222,0.5,0.479618143489232,0.479618143489232,0.558686917212778,0.535607946632527,0.464392053367473,0.576676477072166,0.5,0.258655593686408,0.763541265178433,0.423323522927834,0.017256238603896,0.5,0.0407637130215364,0.87128924652449,7.24517280756524,2.26972798145463,0.5,63.0281118815181
CBC_1019,CBC_1019_MSI_AV_v3_Vset2_Aset1_2023-06-28_16h08.36.821.csv,1,24,2,3,z,0,1,2,aud,D,63,1,2D,3D,0,1,b,3.39748259999942,1,0,0,0,2D,3D,D23,2.9704144655697,0.593932715676062,0.5,0.479618143489232,0.5,0.5,0.571383493199444,0.5,0.5,0.5,0.5,0.558686917212778,0.441313082787222,0.5,0.479618143489232,0.479618143489232,0.558686917212778,0.46192411232683,0.53807588767317,0.479618143489232,0.558686917212778,0.0197091704681868,0.222058583221497,-0.479618143489232,-0.0195510163611171,0.5,0.0407637130215364,0.87128924652449,7.24517280756524,2.26972798145463,0.5,63.0281118815181
CBC_1019,CBC_1019_MSI_AV_v3_Vset2_Aset1_2023-06-28_16h08.36.821.csv,1,25,2,0,b,1,0,1,aud,C,27,1,2C,0C,1,0,b,1.55273440000019,1,0,1,1,2C,0C,C20,3.68887945411394,0.593932715676062,0.5,0.479618143489232,0.5,0.5,0.571383493199444,0.5,0.5,0.5,0.5,0.558686917212778,0.441313082787222,0.5,0.479618143489232,0.460067127128115,0.558686917212778,0.527716842561578,0.472283157438422,0.558686917212778,0.5,0.466145080432033,0.713097287048657,0.441313082787222,0.0179895598593878,0.5,0.0407637130215364,0.87128924652449,7.24517280756524,2.26972798145463,0.5,63.0281118815181
CBC_1019,CBC_1019_MSI_AV_v3_Vset2_Aset1_2023-06-28_16h08.36.821.csv,1,26,0,1,b,1,0,3,aud,A,63,1,0A,1A,1,0,b,3.03605740000057,1,0,1,1,0A,1A,A01,2.32727770558442,0.593932715676062,0.5,0.479618143489232,0.5,0.5,0.571383493199444,0.5,0.5,0.5,0.5,0.576676477072166,0.441313082787222,0.5,0.479618143489232,0.460067127128115,0.558686917212778,0.542933497796531,0.457066502203469,0.593932715676062,0.5,0.102186329407538,0.803798520857184,0.406067284323938,0.0165528102456156,0.5,0.0407637130215364,0.87128924652449,7.24517280756524,2.26972798145463,0.5,63.0281118815181
CBC_1019,CBC_1019_MSI_AV_v3_Vset2_Aset1_2023-06-28_16h08.36.821.csv,1,27,1,3,b,1,0,0,aud,B,27,1,1B,3B,1,0,b,1.71545060000062,1,0,1,1,1B,3B,B13,3.04452243772342,0.610485525921678,0.5,0.479618143489232,0.5,0.5,0.571383493199444,0.5,0.5,0.5,0.5,0.576676477072166,0.441313082787222,0.5,0.479618143489232,0.460067127128115,0.558686917212778,0.533313698434103,0.466686301565897,0.571383493199444,0.5,0.424121070946708,0.749837690520859,0.428616506800556,0.0174720002795113,0.5,0.0407637130215364,0.87128924652449,7.24517280756524,2.26972798145463,0.5,63.0281118815181
CBC_1019,CBC_1019_MSI_AV_v3_Vset2_Aset1_2023-06-28_16h08.36.821.csv,1,28,3,2,z,0,1,1,aud,C,63,1,3C,2C,0,1,z,1.62914259999889,0,1,1,1,2C,3C,C32,2.37490575457367,0.610485525921678,0.5,0.479618143489232,0.5,0.5,0.588855493478955,0.5,0.5,0.5,0.5,0.576676477072166,0.441313082787222,0.5,0.479618143489232,0.460067127128115,0.558686917212778,0.566485649569747,0.433514350430253,0.576676477072166,0.441313082787222,0.614138707875901,0.89926368790672,0.423323522927834,0.017256238603896,0.5,0.0407637130215364,0.87128924652449,7.24517280756524,2.26972798145463,0.5,63.0281118815181
CBC_1019,CBC_1019_MSI_AV_v3_Vset2_Aset1_2023-06-28_16h08.36.821.csv,1,29,3,2,b,1,0,2,aud,D,63,1,3D,2D,1,0,b,3.26159550000011,1,0,1,1,3D,2D,D32,2.68557734525015,0.610485525921678,0.5,0.479618143489232,0.5,0.5,0.588855493478955,0.5,0.5,0.5,0.5,0.593932715676062,0.441313082787222,0.5,0.479618143489232,0.460067127128115,0.558686917212778,0.548402158809818,0.451597841190182,0.558686917212778,0.460067127128115,0.0761066016442316,0.830522850880434,0.441313082787222,0.0179895598593878,0.5,0.0407637130215364,0.87128924652449,7.24517280756524,2.26972798145463,0.5,63.0281118815181
CBC_1019,CBC_1019_MSI_AV_v3_Vset2_Aset1_2023-06-28_16h08.36.821.csv,1,30,0,1,z,0,1,0,aud,B,63,1,0B,1B,0,1,z,2.85401860000093,0,1,1,1,1B,0B,B01,2.70805020110221,0.610485525921678,0.5,0.479618143489232,0.5,0.5,0.588855493478955,0.5,0.5,0.5,0.5,0.593932715676062,0.441313082787222,0.5,0.479618143489232,0.460067127128115,0.576676477072166,0.540802243277965,0.459197756722035,0.588855493478955,0.5,0.126266382862646,0.792145597712915,0.411144506521045,0.0167597766742051,0.5,0.0407637130215364,0.87128924652449,7.24517280756524,2.26972798145463,0.5,63.0281118815181
CBC_1019,CBC_1019_MSI_AV_v3_Vset2_Aset1_2023-06-28_16h08.36.821.csv,1,31,2,0,z,0,1,3,aud,A,27,1,2A,0A,0,1,z,3.63621179999973,0,1,1,1,0A,2A,A20,3.13549421592915,0.610485525921678,0.5,0.479618143489232,0.5,0.5,0.60561527015316,0.5,0.5,0.5,0.5,0.593932715676062,0.441313082787222,0.5,0.479618143489232,0.460067127128115,0.576676477072166,0.560025200402805,0.439974799597195,0.610485525921678,0.479618143489232,0.0407548966200752,0.877728461255823,0.389514474078322,0.0158780562390634,0.5,0.0407637130215364,0.87128924652449,7.24517280756524,2.26972798145463,0.5,63.0281118815181
CBC_1019,CBC_1019_MSI_AV_v3_Vset2_Aset1_2023-06-28_16h08.36.821.csv,1,32,3,0,b,1,0,2,aud,D,9,1,3D,0D,1,0,b,1.32957109999916,1,0,1,1,3D,0D,D30,3.85014760171006,0.626363582160741,0.5,0.479618143489232,0.5,0.5,0.60561527015316,0.5,0.5,0.5,0.5,0.593932715676062,0.441313082787222,0.5,0.479618143489232,0.460067127128115,0.576676477072166,0.535607946632527,0.464392053367473,0.576676477072166,0.5,0.60544059941753,0.763740349282634,0.423323522927834,0.017256238603896,0.5,0.0407637130215364,0.87128924652449,7.24517280756524,2.26972798145463,0.5,63.0281118815181
CBC_1019,CBC_1019_MSI_AV_v3_Vset2_Aset1_2023-06-28_16h08.36.821.csv,1,33,3,2,z,0,1,1,aud,C,63,1,3C,2C,0,1,z,2.26220810000086,0,1,1,1,2C,3C,C32,2.26176309847379,0.626363582160741,0.5,0.479618143489232,0.5,0.5,0.60561527015316,0.5,0.5,0.5,0.5,0.593932715676062,0.441313082787222,0.5,0.479618143489232,0.460067127128115,0.593932715676062,0.573711785701226,0.426288214298774,0.593932715676062,0.441313082787222,0.2446433696181,0.918500390709333,0.406067284323938,0.0165528102456156,0.5,0.0407637130215364,0.87128924652449,7.24517280756524,2.26972798145463,0.5,63.0281118815181
CBC_1019,CBC_1019_MSI_AV_v3_Vset2_Aset1_2023-06-28_16h08.36.821.csv,1,34,0,1,z,0,1,0,aud,B,63,1,0B,1B,0,1,z,1.16145420000066,0,1,1,1,1B,0B,B01,2.50552593699074,0.626363582160741,0.5,0.479618143489232,0.5,0.5,0.60561527015316,0.5,0.5,0.5,0.5,0.610485525921678,0.441313082787222,0.5,0.479618143489232,0.460067127128115,0.593932715676062,0.547763120230118,0.452236879769882,0.60561527015316,0.5,0.644392300147547,0.828032791564729,0.39438472984684,0.0160765859475527,0.5,0.0407637130215364,0.87128924652449,7.24517280756524,2.26972798145463,0.5,63.0281118815181
CBC_1019,CBC_1019_MSI_AV_v3_Vset2_Aset1_2023-06-28_16h08.36.821.csv,1,35,0,1,b,1,0,3,aud,A,63,0,0A,1A,0,1,b,2.13040080000064,1,0,1,0,0A,1A,A01,2.30258509299405,0.626363582160741,0.5,0.479618143489232,0.5,0.5,0.621691856100713,0.5,0.5,0.5,0.5,0.610485525921678,0.441313082787222,0.5,0.479618143489232,0.460067127128115,0.593932715676062,0.556093602528561,0.443906397471439,0.626363582160741,0.5,0.302872132773536,0.863380960677669,-0.626363582160741,-0.025532905310342,0.5,0.0407637130215364,0.87128924652449,7.24517280756524,2.26972798145463,0.5,63.0281118815181
CBC_1019,CBC_1019_MSI_AV_v3_Vset2_Aset1_2023-06-28_16h08.36.821.csv,1,36,2,3,z,0,1,2,aud,D,63,1,2D,3D,0,1,z,1.07953320000161,0,1,1,1,3D,2D,D23,2.83321334405622,0.600830676850399,0.5,0.479618143489232,0.5,0.5,0.621691856100713,0.5,0.5,0.5,0.5,0.610485525921678,0.441313082787222,0.5,0.479618143489232,0.460067127128115,0.593932715676062,0.563503609351495,0.436496390648505,0.593932715676062,0.460067127128115,0.562485417287711,0.889710123471522,0.406067284323938,0.0165528102456156,0.5,0.0407637130215364,0.87128924652449,7.24517280756524,2.26972798145463,0.5,63.0281118815181
CBC_1019,CBC_1019_MSI_AV_v3_Vset2_Aset1_2023-06-28_16h08.36.821.csv,1,37,1,2,b,1,0,0,aud,B,9,1,1B,2B,1,0,b,1.31924910000089,1,0,1,1,1B,2B,B12,3.95124371858143,0.600830676850399,0.5,0.479618143489232,0.5,0.5,0.621691856100713,0.5,0.5,0.5,0.5,0.610485525921678,0.441313082787222,0.5,0.479618143489232,0.460067127128115,0.610485525921678,0.554244780078793,0.445755219921207,0.621691856100713,0.5,0.762527354678681,0.856429195360591,0.378308143899287,0.0154212446116206,0.5,0.0407637130215364,0.87128924652449,7.24517280756524,2.26972798145463,0.5,63.0281118815181
CBC_1019,CBC_1019_MSI_AV_v3_Vset2_Aset1_2023-06-28_16h08.36.821.csv,1,38,2,0,z,0,1,3,aud,A,27,1,2A,0A,0,1,z,3.46773170000051,0,1,1,1,0A,2A,A20,2.87167962488401,0.600830676850399,0.5,0.479618143489232,0.5,0.5,0.637113100712333,0.5,0.5,0.5,0.5,0.610485525921678,0.441313082787222,0.5,0.479618143489232,0.460067127128115,0.610485525921678,0.556093602528561,0.443906397471439,0.600830676850399,0.479618143489232,0.0541736527613641,0.863129658636141,0.399169323149601,0.0162716237358712,0.5,0.0407637130215364,0.87128924652449,7.24517280756524,2.26972798145463,0.5,63.0281118815181
CBC_1019,CBC_1019_MSI_AV_v3_Vset2_Aset1_2023-06-28_16h08.36.821.csv,1,39,2,3,b,1,0,1,aud,C,63,1,2C,3C,1,0,b,1.51156579999952,1,0,1,1,2C,3C,C23,3.29583686600433,0.61710230058627,0.5,0.479618143489232,0.5,0.5,0.637113100712333,0.5,0.5,0.5,0.5,0.610485525921678,0.441313082787222,0.5,0.479618143489232,0.460067127128115,0.610485525921678,0.580420549016564,0.419579450983436,0.610485525921678,0.441313082787222,0.784522354468534,0.933675483535907,0.389514474078322,0.0158780562390634,0.5,0.0407637130215364,0.87128924652449,7.24517280756524,2.26972798145463,0.5,63.0281118815181
CBC_1019,CBC_1019_MSI_AV_v3_Vset2_Aset1_2023-06-28_16h08.36.821.csv,1,40,1,3,z,0,1,2,aud,D,27,1,1D,3D,0,1,z,1.56012740000006,0,1,1,1,3D,1D,D13,3.31418600467253,0.61710230058627,0.5,0.479618143489232,0.5,0.5,0.637113100712333,0.5,0.5,0.5,0.5,0.626363582160741,0.441313082787222,0.5,0.479618143489232,0.460067127128115,0.610485525921678,0.560025200402805,0.439974799597195,0.610485525921678,0.479618143489232,0.642708090361164,0.878627928706995,0.389514474078322,0.0158780562390634,0.5,0.0407637130215364,0.87128924652449,7.24517280756524,2.26972798145463,0.5,63.0281118815181
CBC_1019,CBC_1019_MSI_AV_v3_Vset2_Aset1_2023-06-28_16h08.36.821.csv,1,41,0,1,b,1,0,3,aud,A,63,1,0A,1A,1,0,b,1.51582469999994,1,0,1,1,0A,1A,A01,2.23359222150709,0.61710230058627,0.5,0.479618143489232,0.5,0.5,0.637113100712333,0.5,0.5,0.5,0.5,0.626363582160741,0.441313082787222,0.5,0.479618143489232,0.460067127128115,0.626363582160741,0.552413418415132,0.447586581584868,0.61710230058627,0.5,0.632887216436479,0.848720356217529,0.38289769941373,0.0156083319355078,0.5,0.0407637130215364,0.87128924652449,7.24517280756524,2.26972798145463,0.5,63.0281118815181
CBC_1019,CBC_1019_MSI_AV_v3_Vset2_Aset1_2023-06-28_16h08.36.821.csv,1,42,0,2,z,0,1,1,aud,C,27,1,0C,2C,0,1,b,2.40622590000021,1,0,0,0,0C,2C,C02,3.3499040872746,0.632710632521778,0.5,0.479618143489232,0.5,0.5,0.637113100712333,0.5,0.5,0.5,0.5,0.626363582160741,0.441313082787222,0.5,0.479618143489232,0.460067127128115,0.626363582160741,0.443906397471439,0.556093602528561,0.5,0.626363582160741,0.0336447548698877,0.136759087419275,-0.5,-0.0203818565107682,0.5,0.0407637130215364,0.87128924652449,7.24517280756524,2.26972798145463,0.5,63.0281118815181
CBC_1019,CBC_1019_MSI_AV_v3_Vset2_Aset1_2023-06-28_16h08.36.821.csv,1,43,3,2,b,1,0,2,aud,D,63,1,3D,2D,1,0,b,1.23239319999993,1,0,1,1,3D,2D,D32,2.67414864942653,0.632710632521778,0.5,0.479618143489232,0.5,0.5,0.637113100712333,0.5,0.5,0.479618143489232,0.5,0.626363582160741,0.441313082787222,0.5,0.479618143489232,0.460067127128115,0.626363582160741,0.576533392148625,0.423466607851375,0.626363582160741,0.460067127128115,0.988936038495989,0.925379838231081,0.373636417839259,0.0152308077111944,0.5,0.0407637130215364,0.87128924652449,7.24517280756524,2.26972798145463,0.5,63.0281118815181
CBC_1019,CBC_1019_MSI_AV_v3_Vset2_Aset1_2023-06-28_16h08.36.821.csv,1,44,1,0,b,1,0,0,aud,B,63,1,1B,0B,1,0,b,1.85909689999971,1,0,1,1,1B,0B,B10,2.97892515523761,0.632710632521778,0.5,0.479618143489232,0.5,0.5,0.637113100712333,0.5,0.5,0.479618143489232,0.5,0.626363582160741,0.441313082787222,0.5,0.479618143489232,0.460067127128115,0.641594389871936,0.560290001331635,0.439709998668365,0.637113100712333,0.5,0.436979085816775,0.878994332982649,0.362886899287667,0.0147926174218376,0.5,0.0407637130215364,0.87128924652449,7.24517280756524,2.26972798145463,0.5,63.0281118815181
CBC_1019,CBC_1019_MSI_TV_v3_Vset5_Tset2_2023-06-28_16h17.24.850.csv,2,1,0,1,b,1,0,3,tac,A,63,1,0A,1A,1,0,z,1.9776379,0,1,0,0,1A,0A,A01,2.77258872223978,0.5,0.5,0.5,0.5,0.5,0.5,0.5,0.5,0.5,0.5,0.5,0.5,0.5,0.5,0.5,0.5,0.5,0.5,0.5,0.5,0.228307002122958,0.499758983943966,-0.5,-0.0148595163516594,0.5,0.0297190327033188,0.98306567213574,14.2244033147531,2.48896194076204,0.5,66.5775809481386
CBC_1019,CBC_1019_MSI_TV_v3_Vset5_Tset2_2023-06-28_16h17.24.850.csv,2,2,2,3,z,0,1,2,tac,D,63,1,2D,3D,0,1,z,2.3704644,0,1,1,1,3D,2D,D23,2.83321334405622,0.5,0.485140483648341,0.5,0.5,0.5,0.5,0.5,0.5,0.5,0.5,0.5,0.5,0.5,0.5,0.5,0.5,0.5,0.5,0.5,0.5,0.168087694469706,0.500675362233632,0.5,0.0148595163516594,0.5,0.0297190327033188,0.98306567213574,14.2244033147531,2.48896194076204,0.5,66.5775809481386
CBC_1019,CBC_1019_MSI_TV_v3_Vset5_Tset2_2023-06-28_16h17.24.850.csv,2,3,0,2,z,0,1,1,tac,C,27,1,0C,2C,0,1,b,2.7995421,1,0,0,0,0C,2C,C02,2.89037175789616,0.5,0.485140483648341,0.5,0.5,0.5,0.5,0.5,0.5,0.5,0.5,0.5,0.5,0.5,0.5,0.5,0.514859516351659,0.5,0.5,0.5,0.5,0.11913781723238,0.499269131182019,-0.5,-0.0148595163516594,0.5,0.0297190327033188,0.98306567213574,14.2244033147531,2.48896194076204,0.5,66.5775809481386
CBC_1019,CBC_1019_MSI_TV_v3_Vset5_Tset2_2023-06-28_16h17.24.850.csv,2,4,0,1,b,1,0,3,tac,A,63,1,0A,1A,1,0,z,2.4092744,0,1,0,0,1A,0A,A01,2.2512917986065,0.5,0.485140483648341,0.5,0.5,0.5,0.5,0.5,0.5,0.485140483648341,0.5,0.5,0.5,0.5,0.5,0.5,0.514859516351659,0.492458173936458,0.507541826063542,0.485140483648341,0.5,0.12080323082911,0.370210374978332,-0.485140483648341,-0.0144179058992489,0.5,0.0297190327033188,0.98306567213574,14.2244033147531,2.48896194076204,0.5,66.5775809481386
CBC_1019,CBC_1019_MSI_TV_v3_Vset5_Tset2_2023-06-28_16h17.24.850.csv,2,5,1,3,b,1,0,0,tac,B,27,1,1B,3B,1,0,b,1.8230413,1,0,1,1,1B,3B,B13,2.99573227355399,0.5,0.470722577749092,0.5,0.5,0.5,0.5,0.5,0.5,0.485140483648341,0.5,0.5,0.5,0.5,0.5,0.5,0.514859516351659,0.5,0.5,0.5,0.5,0.256325570439122,0.500556545561746,0.5,0.0148595163516594,0.5,0.0297190327033188,0.98306567213574,14.2244033147531,2.48896194076204,0.5,66.5775809481386
CBC_1019,CBC_1019_MSI_TV_v3_Vset5_Tset2_2023-06-28_16h17.24.850.csv,2,6,3,2,z,0,1,1,tac,C,63,1,3C,2C,0,1,z,2.070941,0,1,1,1,2C,3C,C32,3.04452243772342,0.5,0.470722577749092,0.5,0.5,0.5,0.514859516351659,0.5,0.5,0.485140483648341,0.5,0.5,0.5,0.5,0.5,0.5,0.514859516351659,0.5,0.5,0.5,0.5,0.212522916967803,0.499906954312543,0.5,0.0148595163516594,0.5,0.0297190327033188,0.98306567213574,14.2244033147531,2.48896194076204,0.5,66.5775809481386
CBC_1019,CBC_1019_MSI_TV_v3_Vset5_Tset2_2023-06-28_16h17.24.850.csv,2,7,3,2,b,1,0,2,tac,D,63,0,3D,2D,0,1,b,2.282703,1,0,1,0,3D,2D,D32,3.09104245335832,0.5,0.470722577749092,0.5,0.5,0.5,0.514859516351659,0.5,0.5,0.485140483648341,0.5,0.514859516351659,0.5,0.5,0.5,0.5,0.514859516351659,0.507320972071621,0.492679027928379,0.514859516351659,0.5,0.227002063875824,0.627508285580838,-0.514859516351659,-0.0153011268040699,0.5,0.0297190327033188,0.98306567213574,14.2244033147531,2.48896194076204,0.5,66.5775809481386
CBC_1019,CBC_1019_MSI_TV_v3_Vset5_Tset2_2023-06-28_16h17.24.850.csv,2,8,0,1,z,0,1,0,tac,B,63,1,0B,1B,0,1,b,3.191994,1,0,0,0,0B,1B,B01,3.13549421592915,0.5,0.470722577749092,0.5,0.5,0.5,0.514859516351659,0.5,0.5,0.485140483648341,0.5,0.514859516351659,0.5,0.5,0.5,0.5,0.49955838954759,0.492679027928379,0.507320972071621,0.5,0.514859516351659,0.0641264570918644,0.372824130572178,-0.5,-0.0148595163516594,0.5,0.0297190327033188,0.98306567213574,14.2244033147531,2.48896194076204,0.5,66.5775809481386
CBC_1019,CBC_1019_MSI_TV_v3_Vset5_Tset2_2023-06-28_16h17.24.850.csv,2,9,2,0,z,0,1,3,tac,A,27,1,2A,0A,0,1,z,2.9685056,0,1,1,1,0A,2A,A20,3.17805383034795,0.5,0.470722577749092,0.5,0.5,0.485140483648341,0.514859516351659,0.5,0.5,0.485140483648341,0.5,0.514859516351659,0.5,0.5,0.5,0.5,0.49955838954759,0.5,0.5,0.5,0.5,0.104249187648799,0.499807891027896,0.5,0.0148595163516594,0.5,0.0297190327033188,0.98306567213574,14.2244033147531,2.48896194076204,0.5,66.5775809481386
CBC_1019,CBC_1019_MSI_TV_v3_Vset5_Tset2_2023-06-28_16h17.24.850.csv,2,10,3,0,b,1,0,2,tac,D,9,1,3D,0D,1,0,z,2.3677922,0,1,0,0,0D,3D,D30,3.2188758248682,0.514859516351659,0.470722577749092,0.5,0.5,0.485140483648341,0.514859516351659,0.5,0.5,0.485140483648341,0.5,0.514859516351659,0.5,0.5,0.5,0.5,0.49955838954759,0.500220902779182,0.499779097220819,0.5,0.49955838954759,0.169485502710891,0.503767762768583,-0.5,-0.0148595163516594,0.5,0.0297190327033188,0.98306567213574,14.2244033147531,2.48896194076204,0.5,66.5775809481386
CBC_1019,CBC_1019_MSI_TV_v3_Vset5_Tset2_2023-06-28_16h17.24.850.csv,2,11,2,3,b,1,0,1,tac,C,63,1,2C,3C,1,0,z,3.0427023,0,1,0,0,3C,2C,C23,3.25809653802148,0.514859516351659,0.470722577749092,0.5,0.5,0.485140483648341,0.514859516351659,0.5,0.5,0.485140483648341,0.5,0.514859516351659,0.5,0.485140483648341,0.5,0.5,0.49955838954759,0.492679027928379,0.507320972071621,0.5,0.514859516351659,0.0725615589987773,0.373310424996854,-0.5,-0.0148595163516594,0.5,0.0297190327033188,0.98306567213574,14.2244033147531,2.48896194076204,0.5,66.5775809481386
CBC_1019,CBC_1019_MSI_TV_v3_Vset5_Tset2_2023-06-28_16h17.24.850.csv,2,12,0,1,z,0,1,0,tac,B,63,1,0B,1B,0,1,z,2.5909941,0,1,1,1,1B,0B,B01,2.60268968544438,0.514859516351659,0.470722577749092,0.5,0.5,0.485140483648341,0.514859516351659,0.5,0.5,0.485140483648341,0.5,0.514859516351659,0.485140483648341,0.485140483648341,0.5,0.5,0.49955838954759,0.514859516351659,0.485140483648341,0.514859516351659,0.485140483648341,0.206550168789818,0.741477239773773,0.485140483648341,0.0144179058992489,0.5,0.0297190327033188,0.98306567213574,14.2244033147531,2.48896194076204,0.5,66.5775809481386
CBC_1019,CBC_1019_MSI_TV_v3_Vset5_Tset2_2023-06-28_16h17.24.850.csv,2,13,2,3,z,0,1,2,tac,D,63,1,2D,3D,0,1,b,2.4005722,1,0,0,0,2D,3D,D23,2.63905732961526,0.514859516351659,0.470722577749092,0.5,0.5,0.485140483648341,0.529277422250908,0.5,0.5,0.485140483648341,0.5,0.514859516351659,0.485140483648341,0.485140483648341,0.5,0.5,0.49955838954759,0.500220902779182,0.499779097220819,0.5,0.49955838954759,0.164833299191572,0.502860680482258,-0.5,-0.0148595163516594,0.5,0.0297190327033188,0.98306567213574,14.2244033147531,2.48896194076204,0.5,66.5775809481386
CBC_1019,CBC_1019_MSI_TV_v3_Vset5_Tset2_2023-06-28_16h17.24.850.csv,2,14,2,3,b,1,0,1,tac,C,63,1,2C,3C,1,0,b,3.7807509,1,0,1,1,2C,3C,C23,2.67414864942653,0.514859516351659,0.470722577749092,0.5,0.5,0.485140483648341,0.529277422250908,0.5,0.5,0.485140483648341,0.5,0.514859516351659,0.485140483648341,0.485140483648341,0.5,0.485140483648341,0.49955838954759,0.514859516351659,0.485140483648341,0.514859516351659,0.485140483648341,0.0719626094018541,0.740352375709089,0.485140483648341,0.0144179058992489,0.5,0.0297190327033188,0.98306567213574,14.2244033147531,2.48896194076204,0.5,66.5775809481386
CBC_1019,CBC_1019_MSI_TV_v3_Vset5_Tset2_2023-06-28_16h17.24.850.csv,2,15,3,1,z,0,1,0,tac,B,27,1,3B,1B,0,1,z,3.5569678,0,1,1,1,1B,3B,B31,3.40119738166216,0.514859516351659,0.470722577749092,0.5,0.5,0.485140483648341,0.529277422250908,0.5,0.5,0.485140483648341,0.5,0.529277422250908,0.485140483648341,0.485140483648341,0.5,0.485140483648341,0.49955838954759,0.514222318306993,0.485777681693006,0.529277422250908,0.5,0.0875110531238359,0.733675360239484,0.470722577749092,0.0139894196823158,0.5,0.0297190327033188,0.98306567213574,14.2244033147531,2.48896194076204,0.5,66.5775809481386
CBC_1019,CBC_1019_MSI_TV_v3_Vset5_Tset2_2023-06-28_16h17.24.850.csv,2,16,0,3,b,1,0,3,tac,A,9,1,0A,3A,1,0,b,2.8166803,1,0,1,1,0A,3A,A03,3.43398720448515,0.514859516351659,0.470722577749092,0.5,0.5,0.485140483648341,0.543266841933224,0.5,0.5,0.485140483648341,0.5,0.529277422250908,0.485140483648341,0.485140483648341,0.5,0.485140483648341,0.49955838954759,0.507320972071621,0.492679027928379,0.514859516351659,0.5,0.146675401762091,0.627245441725694,0.485140483648341,0.0144179058992489,0.5,0.0297190327033188,0.98306567213574,14.2244033147531,2.48896194076204,0.5,66.5775809481386
CBC_1019,CBC_1019_MSI_TV_v3_Vset5_Tset2_2023-06-28_16h17.24.850.csv,2,17,2,3,z,0,1,2,tac,D,63,1,2D,3D,0,1,b,2.2796864,1,0,0,0,2D,3D,D23,2.36712361413162,0.529277422250908,0.470722577749092,0.5,0.5,0.485140483648341,0.543266841933224,0.5,0.5,0.485140483648341,0.5,0.529277422250908,0.485140483648341,0.485140483648341,0.5,0.485140483648341,0.49955838954759,0.492679027928379,0.507320972071621,0.485140483648341,0.49955838954759,0.135733634839546,0.374346704144718,-0.485140483648341,-0.0144179058992489,0.5,0.0297190327033188,0.98306567213574,14.2244033147531,2.48896194076204,0.5,66.5775809481386
CBC_1019,CBC_1019_MSI_TV_v3_Vset5_Tset2_2023-06-28_16h17.24.850.csv,2,18,0,2,z,0,1,1,tac,C,27,1,0C,2C,0,1,z,2.8807155,0,1,1,1,2C,0C,C02,2.80336038090653,0.529277422250908,0.470722577749092,0.5,0.5,0.485140483648341,0.543266841933224,0.5,0.5,0.485140483648341,0.5,0.529277422250908,0.485140483648341,0.485140483648341,0.5,0.470722577749092,0.49955838954759,0.521754810490772,0.478245189509228,0.529277422250908,0.485140483648341,0.168011036522415,0.824388767657114,0.470722577749092,0.0139894196823158,0.5,0.0297190327033188,0.98306567213574,14.2244033147531,2.48896194076204,0.5,66.5775809481386
CBC_1019,CBC_1019_MSI_TV_v3_Vset5_Tset2_2023-06-28_16h17.24.850.csv,2,19,0,1,b,1,0,3,tac,A,63,1,0A,1A,1,0,b,2.8169973,1,0,1,1,0A,1A,A01,2.42774823594805,0.529277422250908,0.470722577749092,0.5,0.5,0.485140483648341,0.543266841933224,0.5,0.5,0.485140483648341,0.5,0.543266841933224,0.485140483648341,0.485140483648341,0.5,0.470722577749092,0.49955838954759,0.529277422250908,0.470722577749092,0.529277422250908,0.470722577749092,0.175645530039458,0.888066520200073,0.470722577749092,0.0139894196823158,0.5,0.0297190327033188,0.98306567213574,14.2244033147531,2.48896194076204,0.5,66.5775809481386
CBC_1019,CBC_1019_MSI_TV_v3_Vset5_Tset2_2023-06-28_16h17.24.850.csv,2,20,1,0,b,1,0,0,tac,B,63,0,1B,0B,0,1,b,1.3914311,1,0,1,0,1B,0B,B10,3.55534806148941,0.543266841933224,0.470722577749092,0.5,0.5,0.485140483648341,0.543266841933224,0.5,0.5,0.485140483648341,0.5,0.543266841933224,0.485140483648341,0.485140483648341,0.5,0.470722577749092,0.49955838954759,0.528260377400566,0.471739622599434,0.543266841933224,0.485140483648341,0.681025540228477,0.881017431179176,-0.543266841933224,-0.0161453650420422,0.5,0.0297190327033188,0.98306567213574,14.2244033147531,2.48896194076204,0.5,66.5775809481386
CBC_1019,CBC_1019_MSI_TV_v3_Vset5_Tset2_2023-06-28_16h17.24.850.csv,2,21,3,1,b,1,0,2,tac,D,27,1,3D,1D,1,0,b,2.8472677,1,0,1,1,3D,1D,D31,3.58351893845611,0.543266841933224,0.470722577749092,0.5,0.5,0.485140483648341,0.527121476891182,0.5,0.5,0.485140483648341,0.5,0.543266841933224,0.485140483648341,0.485140483648341,0.5,0.470722577749092,0.49955838954759,0.499779097220819,0.500220902779182,0.49955838954759,0.5,0.114042236474662,0.4964329463923,0.500441610452411,0.0148726405871367,0.5,0.0297190327033188,0.98306567213574,14.2244033147531,2.48896194076204,0.5,66.5775809481386
CBC_1019,CBC_1019_MSI_TV_v3_Vset5_Tset2_2023-06-28_16h17.24.850.csv,2,22,3,2,z,0,1,1,tac,C,63,1,3C,2C,NaN,NaN,None,NaN,NaN,NaN,NaN,NaN,,,C32,2.91777073208428,0.543266841933224,0.470722577749092,0.5,0.5,0.485140483648341,0.527121476891182,0.5,0.5,0.485140483648341,0.5,0.543266841933224,0.485140483648341,0.485140483648341,0.5,0.470722577749092,0.514431030134726,0,0,0,0,NaN,0,0,0,0.5,0.0297190327033188,0.98306567213574,14.2244033147531,2.48896194076204,0.5,66.5775809481386
CBC_1019,CBC_1019_MSI_TV_v3_Vset5_Tset2_2023-06-28_16h17.24.850.csv,2,23,0,1,z,0,1,0,tac,B,63,1,0B,1B,0,1,z,1.1478389,0,1,1,1,1B,0B,B01,2.53897387105828,0.543266841933224,0.470722577749092,0.5,0.5,0.485140483648341,0.527121476891182,0.5,0.5,0.485140483648341,0.5,0.543266841933224,0.485140483648341,0.485140483648341,0.5,0.470722577749092,0.514431030134726,0.520736229789997,0.479263770210003,0.527121476891182,0.485140483648341,0.136883302425517,0.813104413168789,0.472878523108818,0.014053492292968,0.5,0.0297190327033188,0.98306567213574,14.2244033147531,2.48896194076204,0.5,66.5775809481386
CBC_1019,CBC_1019_MSI_TV_v3_Vset5_Tset2_2023-06-28_16h17.24.850.csv,2,24,0,2,b,1,0,3,tac,A,27,1,0A,2A,1,0,b,2.2034248,1,0,1,1,0A,2A,A02,3.66356164612965,0.543266841933224,0.470722577749092,0.5,0.5,0.485140483648341,0.54117496918415,0.5,0.5,0.485140483648341,0.5,0.543266841933224,0.485140483648341,0.485140483648341,0.5,0.470722577749092,0.514431030134726,0.520736229789997,0.479263770210003,0.543266841933224,0.5,0.322742830046006,0.812569516332321,0.456733158066776,0.0135736676612766,0.5,0.0297190327033188,0.98306567213574,14.2244033147531,2.48896194076204,0.5,66.5775809481386
CBC_1019,CBC_1019_MSI_TV_v3_Vset5_Tset2_2023-06-28_16h17.24.850.csv,2,25,3,2,b,1,0,2,tac,D,63,1,3D,2D,1,0,b,3.1931317,1,0,1,1,3D,2D,D32,2.99573227355399,0.556840509594501,0.470722577749092,0.5,0.5,0.485140483648341,0.54117496918415,0.5,0.5,0.485140483648341,0.5,0.543266841933224,0.485140483648341,0.485140483648341,0.5,0.470722577749092,0.514431030134726,0.5221835722043,0.4778164277957,0.514431030134726,0.470722577749092,0.123166987445306,0.827828712607093,0.485568969865274,0.0144306400951429,0.5,0.0297190327033188,0.98306567213574,14.2244033147531,2.48896194076204,0.5,66.5775809481386
CBC_1019,CBC_1019_MSI_TV_v3_Vset5_Tset2_2023-06-28_16h17.24.850.csv,2,26,0,2,z,0,1,1,tac,C,27,1,0C,2C,0,1,z,2.9534942,0,1,1,1,2C,0C,C02,2.6149597780362,0.556840509594501,0.470722577749092,0.5,0.5,0.485140483648341,0.54117496918415,0.5,0.5,0.485140483648341,0.5,0.543266841933224,0.485140483648341,0.485140483648341,0.5,0.470722577749092,0.528861670229869,0.528260377400566,0.471739622599434,0.543266841933224,0.485140483648341,0.151829546496897,0.880969903229741,0.456733158066776,0.0135736676612766,0.5,0.0297190327033188,0.98306567213574,14.2244033147531,2.48896194076204,0.5,66.5775809481386
CBC_1019,CBC_1019_MSI_TV_v3_Vset5_Tset2_2023-06-28_16h17.24.850.csv,2,27,0,1,z,0,1,0,tac,B,63,1,0B,1B,0,1,z,2.6121374,0,1,1,1,1B,0B,B01,2.35137525716348,0.556840509594501,0.470722577749092,0.5,0.5,0.485140483648341,0.54117496918415,0.5,0.5,0.485140483648341,0.5,0.556840509594501,0.485140483648341,0.485140483648341,0.5,0.470722577749092,0.528861670229869,0.527298860881984,0.472701139118016,0.54117496918415,0.485140483648341,0.222783220649319,0.873226279364829,0.45882503081585,0.0136358360959175,0.5,0.0297190327033188,0.98306567213574,14.2244033147531,2.48896194076204,0.5,66.5775809481386
CBC_1019,CBC_1019_MSI_TV_v3_Vset5_Tset2_2023-06-28_16h17.24.850.csv,2,28,1,0,z,0,1,3,tac,A,63,1,1A,0A,0,1,z,1.5995394,0,1,1,1,0A,1A,A10,3.76120011569356,0.556840509594501,0.470722577749092,0.5,0.5,0.485140483648341,0.554810805280067,0.5,0.5,0.485140483648341,0.5,0.556840509594501,0.485140483648341,0.485140483648341,0.5,0.470722577749092,0.528861670229869,0.541903963321628,0.458096036678372,0.556840509594501,0.470722577749092,0.830775279437102,0.951055349790249,0.443159490405499,0.0131702713881471,0.5,0.0297190327033188,0.98306567213574,14.2244033147531,2.48896194076204,0.5,66.5775809481386
CBC_1019,CBC_1019_MSI_TV_v3_Vset5_Tset2_2023-06-28_16h17.24.850.csv,2,29,2,3,b,1,0,1,tac,C,63,0,2C,3C,0,1,z,1.7286652,0,1,0,1,3C,2C,C23,2.68557734525015,0.570010780982648,0.470722577749092,0.5,0.5,0.485140483648341,0.554810805280067,0.5,0.5,0.485140483648341,0.5,0.556840509594501,0.485140483648341,0.485140483648341,0.5,0.470722577749092,0.528861670229869,0.465594369565698,0.534405630434302,0.485140483648341,0.556840509594501,0.0564787368846647,0.0805060641935713,0.514859516351659,0.0153011268040699,0.5,0.0297190327033188,0.98306567213574,14.2244033147531,2.48896194076204,0.5,66.5775809481386
CBC_1019,CBC_1019_MSI_TV_v3_Vset5_Tset2_2023-06-28_16h17.24.850.csv,2,30,1,3,z,0,1,2,tac,D,27,1,1D,3D,0,1,z,2.018582,0,1,1,1,3D,1D,D13,3.80666248977032,0.570010780982648,0.470722577749092,0.5,0.5,0.485140483648341,0.554810805280067,0.5,0.5,0.485140483648341,0.5,0.556840509594501,0.50044161045241,0.485140483648341,0.5,0.470722577749092,0.528861670229869,0.514026020729988,0.485973979270012,0.528861670229869,0.5,0.334979711228784,0.729798346579528,0.471138329770131,0.0140017754302255,0.5,0.0297190327033188,0.98306567213574,14.2244033147531,2.48896194076204,0.5,66.5775809481386
CBC_1019,CBC_1019_MSI_TV_v3_Vset5_Tset2_2023-06-28_16h17.24.850.csv,2,31,0,1,b,1,0,3,tac,A,63,1,0A,1A,1,0,b,1.3902008,1,0,1,1,0A,1A,A01,2.4423470353692,0.570010780982648,0.470722577749092,0.5,0.5,0.485140483648341,0.554810805280067,0.5,0.5,0.485140483648341,0.5,0.556840509594501,0.50044161045241,0.485140483648341,0.5,0.470722577749092,0.542863445660095,0.547701076553629,0.452298923446371,0.570010780982648,0.470722577749092,1.06096311992092,0.966945199238073,0.429989219017352,0.0127788636620512,0.5,0.0297190327033188,0.98306567213574,14.2244033147531,2.48896194076204,0.5,66.5775809481386
CBC_1019,CBC_1019_MSI_TV_v3_Vset5_Tset2_2023-06-28_16h17.24.850.csv,2,32,2,3,z,0,1,2,tac,D,63,1,2D,3D,0,1,b,3.4218016,1,0,0,0,2D,3D,D23,2.46385324059017,0.582789644644699,0.470722577749092,0.5,0.5,0.485140483648341,0.554810805280067,0.5,0.5,0.485140483648341,0.5,0.556840509594501,0.50044161045241,0.485140483648341,0.5,0.470722577749092,0.542863445660095,0.46441305116444,0.53558694883556,0.470722577749092,0.542863445660095,0.0059218537995989,0.0745849774848013,-0.470722577749092,-0.0139894196823158,0.5,0.0297190327033188,0.98306567213574,14.2244033147531,2.48896194076204,0.5,66.5775809481386
CBC_1019,CBC_1019_MSI_TV_v3_Vset5_Tset2_2023-06-28_16h17.24.850.csv,2,33,1,2,b,1,0,0,tac,B,9,1,1B,2B,1,0,b,1.6670956,1,0,1,1,1B,2B,B12,3.87120101090789,0.582789644644699,0.470722577749092,0.5,0.5,0.485140483648341,0.554810805280067,0.5,0.5,0.485140483648341,0.5,0.556840509594501,0.50044161045241,0.485140483648341,0.5,0.456733158066776,0.542863445660095,0.525981344239982,0.474018655760018,0.554810805280067,0.5,0.589200417803949,0.863319372070622,0.445189194719933,0.0132305922370458,0.5,0.0297190327033188,0.98306567213574,14.2244033147531,2.48896194076204,0.5,66.5775809481386
CBC_1019,CBC_1019_MSI_TV_v3_Vset5_Tset2_2023-06-28_16h17.24.850.csv,2,34,0,1,b,1,0,3,tac,A,63,1,0A,1A,1,0,b,1.4035191,1,0,1,1,0A,1A,A01,2.28238238567653,0.582789644644699,0.470722577749092,0.5,0.5,0.485140483648341,0.568041397517113,0.5,0.5,0.485140483648341,0.5,0.556840509594501,0.50044161045241,0.485140483648341,0.5,0.456733158066776,0.542863445660095,0.553187359630707,0.446812640369293,0.582789644644699,0.470722577749092,1.1738160659645,0.977459137389064,0.417210355355301,0.0123990881949674,0.5,0.0297190327033188,0.98306567213574,14.2244033147531,2.48896194076204,0.5,66.5775809481386
CBC_1019,CBC_1019_MSI_TV_v3_Vset5_Tset2_2023-06-28_16h17.24.850.csv,2,35,1,2,z,0,1,1,tac,C,9,1,1C,2C,0,1,z,1.1644528,0,1,1,1,2C,1C,C12,3.91202300542815,0.595188732839666,0.470722577749092,0.5,0.5,0.485140483648341,0.568041397517113,0.5,0.5,0.485140483648341,0.5,0.556840509594501,0.50044161045241,0.485140483648341,0.5,0.456733158066776,0.542863445660095,0.52689171595831,0.473108284041691,0.556840509594501,0.5,0.220919526660639,0.870290318832624,0.443159490405499,0.0131702713881471,0.5,0.0297190327033188,0.98306567213574,14.2244033147531,2.48896194076204,0.5,66.5775809481386
CBC_1019,CBC_1019_MSI_TV_v3_Vset5_Tset2_2023-06-28_16h17.24.850.csv,2,36,0,1,z,0,1,0,tac,B,63,1,0B,1B,0,1,z,1.3694181,0,1,1,1,1B,0B,B01,2.32238772029023,0.595188732839666,0.470722577749092,0.5,0.5,0.485140483648341,0.568041397517113,0.5,0.5,0.485140483648341,0.5,0.570010780982648,0.50044161045241,0.485140483648341,0.5,0.456733158066776,0.542863445660095,0.539357358568035,0.460642641431965,0.568041397517113,0.485140483648341,0.87966452727966,0.941718816339433,0.431958602482887,0.0128373918336688,0.5,0.0297190327033188,0.98306567213574,14.2244033147531,2.48896194076204,0.5,66.5775809481386
CBC_1019,CBC_1019_MSI_TV_v3_Vset5_Tset2_2023-06-28_16h17.24.850.csv,2,37,1,0,z,0,1,3,tac,A,63,0,1A,0A,1,0,z,1.2886122,0,1,1,0,0A,1A,A10,3.25809653802148,0.595188732839666,0.470722577749092,0.5,0.5,0.485140483648341,0.580878789350782,0.5,0.5,0.485140483648341,0.5,0.570010780982648,0.50044161045241,0.485140483648341,0.5,0.456733158066776,0.542863445660095,0.558384855219252,0.441615144780748,0.595188732839666,0.470722577749092,1.20922394773673,0.984262132916759,-0.595188732839666,-0.0176884334159089,0.5,0.0297190327033188,0.98306567213574,14.2244033147531,2.48896194076204,0.5,66.5775809481386
CBC_1019,CBC_1019_MSI_TV_v3_Vset5_Tset2_2023-06-28_16h17.24.850.csv,2,38,1,0,b,1,0,0,tac,B,63,1,1B,0B,1,0,b,1.7449358,1,0,1,1,1B,0B,B10,3.27714473299218,0.577500299423758,0.470722577749092,0.5,0.5,0.485140483648341,0.580878789350782,0.5,0.5,0.485140483648341,0.5,0.570010780982648,0.50044161045241,0.485140483648341,0.5,0.456733158066776,0.542863445660095,0.544904584807877,0.455095415192123,0.580878789350782,0.485140483648341,0.710740427866987,0.960044443538733,0.419121210649218,0.0124558769659387,0.5,0.0297190327033188,0.98306567213574,14.2244033147531,2.48896194076204,0.5,66.5775809481386
CBC_1019,CBC_1019_MSI_TV_v3_Vset5_Tset2_2023-06-28_16h17.24.850.csv,2,39,3,1,b,1,0,2,tac,D,27,1,3D,1D,1,0,b,1.8735198,1,0,1,1,3D,1D,D31,3.29583686600433,0.577500299423758,0.470722577749092,0.5,0.5,0.485140483648341,0.593334666316721,0.5,0.5,0.485140483648341,0.5,0.570010780982648,0.50044161045241,0.485140483648341,0.5,0.456733158066776,0.542863445660095,0.520550842892457,0.479449157107543,0.542863445660095,0.5,0.438924239334123,0.810712084935897,0.457136554339905,0.0135856562083101,0.5,0.0297190327033188,0.98306567213574,14.2244033147531,2.48896194076204,0.5,66.5775809481386
CBC_1019,CBC_1019_MSI_TV_v3_Vset5_Tset2_2023-06-28_16h17.24.850.csv,2,40,2,3,b,1,0,1,tac,C,63,1,2C,3C,1,0,z,2.1863712,0,1,0,0,3C,2C,C23,2.62103882411258,0.577500299423758,0.470722577749092,0.5,0.5,0.485140483648341,0.593334666316721,0.5,0.5,0.485140483648341,0.5,0.570010780982648,0.50044161045241,0.485140483648341,0.5,0.456733158066776,0.556449101868405,0.467504780648408,0.532495219351592,0.50044161045241,0.570010780982648,0.0365607703571715,0.0905935872982675,-0.50044161045241,-0.0148726405871367,0.5,0.0297190327033188,0.98306567213574,14.2244033147531,2.48896194076204,0.5,66.5775809481386
CBC_1019,CBC_1019_MSI_TV_v3_Vset5_Tset2_2023-06-28_16h17.24.850.csv,2,41,2,0,z,0,1,3,tac,A,27,1,2A,0A,0,1,z,1.4287192,0,1,1,1,0A,2A,A20,3.3322045101752,0.577500299423758,0.470722577749092,0.5,0.5,0.485140483648341,0.593334666316721,0.5,0.5,0.485140483648341,0.5,0.570010780982648,0.485568969865274,0.485140483648341,0.5,0.456733158066776,0.556449101868405,0.535963005980232,0.464036994019768,0.577500299423758,0.5,0.831785405998063,0.927617851407205,0.422499700576242,0.0125562824185677,0.5,0.0297190327033188,0.98306567213574,14.2244033147531,2.48896194076204,0.5,66.5775809481386
CBC_1019,CBC_1019_MSI_TV_v3_Vset5_Tset2_2023-06-28_16h17.24.850.csv,2,42,3,2,b,1,0,2,tac,D,63,1,3D,2D,1,0,b,2.3927048,1,0,1,1,3D,2D,D32,2.94443897916644,0.590056581842325,0.470722577749092,0.5,0.5,0.485140483648341,0.593334666316721,0.5,0.5,0.485140483648341,0.5,0.570010780982648,0.485568969865274,0.485140483648341,0.5,0.456733158066776,0.556449101868405,0.549209282349658,0.450790717650343,0.556449101868405,0.456733158066776,0.23639687540965,0.97032272834412,0.443550898131595,0.0131819036471593,0.5,0.0297190327033188,0.98306567213574,14.2244033147531,2.48896194076204,0.5,66.5775809481386
CBC_1019,CBC_1019_MSI_TV_v3_Vset5_Tset2_2023-06-28_16h17.24.850.csv,2,43,3,1,z,0,1,0,tac,B,27,1,3B,1B,0,1,z,1.6080262,0,1,1,1,1B,3B,B31,3.36729582998647,0.590056581842325,0.470722577749092,0.5,0.5,0.485140483648341,0.593334666316721,0.5,0.5,0.485140483648341,0.5,0.570010780982648,0.485568969865274,0.485140483648341,0.5,0.456733158066776,0.569631005515564,0.542683484385962,0.457316515614038,0.593334666316721,0.5,0.831856074273904,0.953533515200194,0.406665333683279,0.0120857003510394,0.5,0.0297190327033188,0.98306567213574,14.2244033147531,2.48896194076204,0.5,66.5775809481386
CBC_1019,CBC_1019_MSI_TV_v3_Vset5_Tset2_2023-06-28_16h17.24.850.csv,2,44,2,3,b,1,0,1,tac,C,63,1,2C,3C,1,0,b,2.1314321,1,0,1,1,2C,3C,C23,2.46809953147162,0.590056581842325,0.470722577749092,0.5,0.5,0.485140483648341,0.60542036666776,0.5,0.5,0.485140483648341,0.5,0.570010780982648,0.485568969865274,0.485140483648341,0.5,0.456733158066776,0.569631005515564,0.539997835809916,0.460002164190084,0.570010780982648,0.485568969865274,0.397269568944226,0.944402884035302,0.429989219017352,0.0127788636620512,0.5,0.0297190327033188,0.98306567213574,14.2244033147531,2.48896194076204,0.5,66.5775809481386
CBC_1019,CBC_1019_MSI_AV_v3_Vset4_Aset3_2023-06-28_17h50.15.634.csv,3,1,1,3,b,1,0,0,aud,B,27,1,1B,3B,1,0,b,2.297013899999,1,0,1,1,1B,3B,B13,2.77258872223978,0.5,0.5,0.5,0.5,0.5,0.5,0.5,0.5,0.5,0.5,0.5,0.5,0.5,0.5,0.5,0.5,0.5,0.5,0.5,0.5,0.18098987705705,0.499855512275423,0.5,0.0457057832784664,0.5,0.0914115665569327,1.01330805803582,6.66760944909761,2.37195422194813,0.5,53.4225033239996
CBC_1019,CBC_1019_MSI_AV_v3_Vset4_Aset3_2023-06-28_17h50.15.634.csv,3,2,3,2,z,0,1,1,aud,C,63,1,3C,2C,0,1,b,2.95673379999789,1,0,0,0,3C,2C,C32,2.83321334405622,0.5,0.5,0.5,0.5,0.5,0.545705783278466,0.5,0.5,0.5,0.5,0.5,0.5,0.5,0.5,0.5,0.5,0.5,0.5,0.5,0.5,0.101539984847122,0.500004845924025,-0.5,-0.0457057832784664,0.5,0.0914115665569327,1.01330805803582,6.66760944909761,2.37195422194813,0.5,53.4225033239996
CBC_1019,CBC_1019_MSI_AV_v3_Vset4_Aset3_2023-06-28_17h50.15.634.csv,3,3,3,2,b,1,0,2,aud,D,63,1,3D,2D,1,0,b,2.13012530000015,1,0,1,1,3D,2D,D32,2.89037175789616,0.5,0.5,0.5,0.5,0.5,0.545705783278466,0.5,0.5,0.5,0.5,0.5,0.454294216721534,0.5,0.5,0.5,0.5,0.5,0.5,0.5,0.5,0.209533676948198,0.500296016207194,0.5,0.0457057832784664,0.5,0.0914115665569327,1.01330805803582,6.66760944909761,2.37195422194813,0.5,53.4225033239996
CBC_1019,CBC_1019_MSI_AV_v3_Vset4_Aset3_2023-06-28_17h50.15.634.csv,3,4,0,1,z,0,1,0,aud,B,63,0,0B,1B,1,0,z,1.77212379999946,0,1,1,0,1B,0B,B01,2.94443897916644,0.5,0.5,0.5,0.5,0.5,0.545705783278466,0.5,0.5,0.5,0.5,0.5,0.454294216721534,0.5,0.5,0.5,0.545705783278466,0.521854035814534,0.478145964185466,0.545705783278466,0.5,0.386973306089618,0.66634612712947,-0.545705783278466,-0.0498838205286626,0.5,0.0914115665569327,1.01330805803582,6.66760944909761,2.37195422194813,0.5,53.4225033239996
CBC_1019,CBC_1019_MSI_AV_v3_Vset4_Aset3_2023-06-28_17h50.15.634.csv,3,5,0,3,b,1,0,3,aud,A,9,1,0A,3A,1,0,b,2.37205799999902,1,0,1,1,0A,3A,A03,2.99573227355399,0.5,0.5,0.5,0.5,0.5,0.495821962749804,0.5,0.5,0.5,0.5,0.5,0.454294216721534,0.5,0.5,0.5,0.545705783278466,0.5,0.5,0.5,0.5,0.169380201266643,0.499544067311246,0.5,0.0457057832784664,0.5,0.0914115665569327,1.01330805803582,6.66760944909761,2.37195422194813,0.5,53.4225033239996
CBC_1019,CBC_1019_MSI_AV_v3_Vset4_Aset3_2023-06-28_17h50.15.634.csv,3,6,3,2,b,1,0,2,aud,D,63,1,3D,2D,1,0,z,2.69385499999953,0,1,0,0,2D,3D,D32,2.35137525716348,0.545705783278466,0.5,0.5,0.5,0.5,0.495821962749804,0.5,0.5,0.5,0.5,0.5,0.454294216721534,0.5,0.5,0.5,0.545705783278466,0.478145964185466,0.521854035814534,0.5,0.545705783278466,0.084624525027633,0.335084357163209,-0.5,-0.0457057832784664,0.5,0.0914115665569327,1.01330805803582,6.66760944909761,2.37195422194813,0.5,53.4225033239996
CBC_1019,CBC_1019_MSI_AV_v3_Vset4_Aset3_2023-06-28_17h50.15.634.csv,3,7,0,2,z,0,1,1,aud,C,27,1,0C,2C,0,1,b,2.56736900000033,1,0,0,0,0C,2C,C02,3.09104245335832,0.545705783278466,0.5,0.5,0.5,0.5,0.495821962749804,0.5,0.5,0.5,0.5,0.5,0.454294216721534,0.5,0.5,0.454294216721534,0.545705783278466,0.5,0.5,0.5,0.5,0.142949631446832,0.500291452400074,-0.5,-0.0457057832784664,0.5,0.0914115665569327,1.01330805803582,6.66760944909761,2.37195422194813,0.5,53.4225033239996
CBC_1019,CBC_1019_MSI_AV_v3_Vset4_Aset3_2023-06-28_17h50.15.634.csv,3,8,0,1,b,1,0,3,aud,A,63,1,0A,1A,1,0,b,2.02084709999872,1,0,1,1,0A,1A,A01,3.13549421592915,0.545705783278466,0.5,0.5,0.5,0.5,0.495821962749804,0.5,0.5,0.454294216721534,0.5,0.5,0.454294216721534,0.5,0.5,0.454294216721534,0.545705783278466,0.521854035814534,0.478145964185466,0.545705783278466,0.5,0.311750751396763,0.666593835775148,0.454294216721534,0.0415277460282701,0.5,0.0914115665569327,1.01330805803582,6.66760944909761,2.37195422194813,0.5,53.4225033239996
CBC_1019,CBC_1019_MSI_AV_v3_Vset4_Aset3_2023-06-28_17h50.15.634.csv,3,9,1,0,b,1,0,0,aud,B,63,1,1B,0B,1,0,b,2.56008249999832,1,0,1,1,1B,0B,B10,3.17805383034795,0.587233529306737,0.5,0.5,0.5,0.5,0.495821962749804,0.5,0.5,0.454294216721534,0.5,0.5,0.454294216721534,0.5,0.5,0.454294216721534,0.545705783278466,0.497902216758376,0.502097783241624,0.495821962749804,0.5,0.138945840923409,0.483209759670228,0.504178037250196,0.04608770420864,0.5,0.0914115665569327,1.01330805803582,6.66760944909761,2.37195422194813,0.5,53.4225033239996
CBC_1019,CBC_1019_MSI_AV_v3_Vset4_Aset3_2023-06-28_17h50.15.634.csv,3,10,1,3,z,0,1,2,aud,D,27,1,1D,3D,0,1,z,2.27822620000006,0,1,1,1,3D,1D,D13,3.2188758248682,0.587233529306737,0.5,0.5,0.5,0.5,0.541909666958444,0.5,0.5,0.454294216721534,0.5,0.5,0.454294216721534,0.5,0.5,0.454294216721534,0.545705783278466,0.521854035814534,0.478145964185466,0.545705783278466,0.5,0.246154474763136,0.665529854502289,0.454294216721534,0.0415277460282701,0.5,0.0914115665569327,1.01330805803582,6.66760944909761,2.37195422194813,0.5,53.4225033239996
CBC_1019,CBC_1019_MSI_AV_v3_Vset4_Aset3_2023-06-28_17h50.15.634.csv,3,11,3,2,z,0,1,1,aud,C,63,1,3C,2C,0,1,z,1.78860539999914,0,1,1,1,2C,3C,C32,2.56494935746154,0.587233529306737,0.5,0.5,0.5,0.5,0.541909666958444,0.5,0.5,0.454294216721534,0.5,0.5,0.454294216721534,0.5,0.5,0.454294216721534,0.587233529306737,0.523947427574008,0.476052572425992,0.5,0.454294216721534,0.392186160492315,0.68113606830796,0.5,0.0457057832784664,0.5,0.0914115665569327,1.01330805803582,6.66760944909761,2.37195422194813,0.5,53.4225033239996
CBC_1019,CBC_1019_MSI_AV_v3_Vset4_Aset3_2023-06-28_17h50.15.634.csv,3,12,1,0,b,1,0,0,aud,B,63,1,1B,0B,1,0,b,2.32751249999819,1,0,1,1,1B,0B,B10,2.60268968544438,0.587233529306737,0.5,0.5,0.5,0.5,0.541909666958444,0.5,0.5,0.454294216721534,0.5,0.545705783278466,0.454294216721534,0.5,0.5,0.454294216721534,0.587233529306737,0.520111948419092,0.479888051580908,0.541909666958444,0.5,0.231274500112671,0.654362760314275,0.458090333041556,0.0418747549679157,0.5,0.0914115665569327,1.01330805803582,6.66760944909761,2.37195422194813,0.5,53.4225033239996
CBC_1019,CBC_1019_MSI_AV_v3_Vset4_Aset3_2023-06-28_17h50.15.634.csv,3,13,0,1,b,1,0,3,aud,A,63,1,0A,1A,1,0,b,3.24049319999904,1,0,1,1,0A,1A,A01,2.63905732961526,0.587233529306737,0.5,0.5,0.5,0.5,0.583784421926359,0.5,0.5,0.454294216721534,0.5,0.545705783278466,0.454294216721534,0.5,0.5,0.454294216721534,0.587233529306737,0.540117199734615,0.459882800265385,0.587233529306737,0.5,0.108561797808753,0.780243195792149,0.412766470693263,0.0377316297082475,0.5,0.0914115665569327,1.01330805803582,6.66760944909761,2.37195422194813,0.5,53.4225033239996
CBC_1019,CBC_1019_MSI_AV_v3_Vset4_Aset3_2023-06-28_17h50.15.634.csv,3,14,1,2,z,0,1,1,aud,C,9,1,1C,2C,0,1,z,2.15195540000059,0,1,1,1,2C,1C,C12,3.36729582998647,0.624965159014984,0.5,0.5,0.5,0.5,0.583784421926359,0.5,0.5,0.454294216721534,0.5,0.545705783278466,0.454294216721534,0.5,0.5,0.454294216721534,0.587233529306737,0.521854035814534,0.478145964185466,0.545705783278466,0.5,0.276961504256805,0.667043240350662,0.454294216721534,0.0415277460282701,0.5,0.0914115665569327,1.01330805803582,6.66760944909761,2.37195422194813,0.5,53.4225033239996
CBC_1019,CBC_1019_MSI_AV_v3_Vset4_Aset3_2023-06-28_17h50.15.634.csv,3,15,1,0,z,0,1,3,aud,A,63,1,1A,0A,0,1,z,1.28130299999975,0,1,1,1,0A,1A,A10,3.40119738166216,0.624965159014984,0.5,0.5,0.5,0.5,0.583784421926359,0.5,0.5,0.454294216721534,0.5,0.587233529306737,0.454294216721534,0.5,0.5,0.454294216721534,0.587233529306737,0.555541790789505,0.444458209210495,0.624965159014984,0.5,0.552792027923757,0.852723639523007,0.375034840985016,0.0342825223278705,0.5,0.0914115665569327,1.01330805803582,6.66760944909761,2.37195422194813,0.5,53.4225033239996
CBC_1019,CBC_1019_MSI_AV_v3_Vset4_Aset3_2023-06-28_17h50.15.634.csv,3,16,3,1,b,1,0,2,aud,D,27,1,3D,1D,1,0,b,1.73045949999869,1,0,1,1,3D,1D,D31,3.43398720448515,0.659247681342854,0.5,0.5,0.5,0.5,0.583784421926359,0.5,0.5,0.454294216721534,0.5,0.587233529306737,0.454294216721534,0.5,0.5,0.454294216721534,0.587233529306737,0.540117199734615,0.459882800265385,0.587233529306737,0.5,0.497716556969211,0.781532707413422,0.412766470693263,0.0377316297082475,0.5,0.0914115665569327,1.01330805803582,6.66760944909761,2.37195422194813,0.5,53.4225033239996
CBC_1019,CBC_1019_MSI_AV_v3_Vset4_Aset3_2023-06-28_17h50.15.634.csv,3,17,0,1,z,0,1,0,aud,B,63,1,0B,1B,0,1,z,1.68995349999932,0,1,1,1,1B,0B,B01,2.77258872223978,0.659247681342854,0.5,0.5,0.5,0.5,0.583784421926359,0.5,0.5,0.454294216721534,0.5,0.587233529306737,0.454294216721534,0.5,0.5,0.454294216721534,0.624965159014984,0.538653638228827,0.461346361771173,0.583784421926359,0.5,0.506250085233316,0.772722035532407,0.416215578073641,0.0380469180171108,0.5,0.0914115665569327,1.01330805803582,6.66760944909761,2.37195422194813,0.5,53.4225033239996
CBC_1019,CBC_1019_MSI_AV_v3_Vset4_Aset3_2023-06-28_17h50.15.634.csv,3,18,2,3,b,1,0,1,aud,C,63,0,2C,3C,0,1,b,3.29556589999993,1,0,1,0,2C,3C,C23,3.49650756146648,0.659247681342854,0.5,0.5,0.5,0.5,0.62183133994347,0.5,0.5,0.454294216721534,0.5,0.587233529306737,0.454294216721534,0.5,0.5,0.454294216721534,0.624965159014984,0.563819381236914,0.436180618763086,0.587233529306737,0.454294216721534,0.0907104414163768,0.882219661346103,-0.587233529306737,-0.0536799368486853,0.5,0.0914115665569327,1.01330805803582,6.66760944909761,2.37195422194813,0.5,53.4225033239996
CBC_1019,CBC_1019_MSI_AV_v3_Vset4_Aset3_2023-06-28_17h50.15.634.csv,3,19,2,0,z,0,1,3,aud,A,27,1,2A,0A,0,1,z,1.8467729999993,0,1,1,1,0A,2A,A20,3.52636052461616,0.659247681342854,0.5,0.5,0.5,0.5,0.62183133994347,0.5,0.5,0.454294216721534,0.5,0.533553592458051,0.454294216721534,0.5,0.5,0.454294216721534,0.624965159014984,0.568685788164952,0.431314211835048,0.659247681342854,0.5,0.556414323785277,0.897514488130648,0.340752318657146,0.0311487032563568,0.5,0.0914115665569327,1.01330805803582,6.66760944909761,2.37195422194813,0.5,53.4225033239996
CBC_1019,CBC_1019_MSI_AV_v3_Vset4_Aset3_2023-06-28_17h50.15.634.csv,3,20,3,2,b,1,0,2,aud,D,63,1,3D,2D,1,0,b,1.22781899999791,1,0,1,1,3D,2D,D32,2.4567357728213,0.690396384599211,0.5,0.5,0.5,0.5,0.62183133994347,0.5,0.5,0.454294216721534,0.5,0.533553592458051,0.454294216721534,0.5,0.5,0.454294216721534,0.624965159014984,0.579068547436514,0.420931452563486,0.624965159014984,0.454294216721534,0.556391810015343,0.924250889688444,0.375034840985016,0.0342825223278705,0.5,0.0914115665569327,1.01330805803582,6.66760944909761,2.37195422194813,0.5,53.4225033239996
CBC_1019,CBC_1019_MSI_AV_v3_Vset4_Aset3_2023-06-28_17h50.15.634.csv,3,21,3,1,z,0,1,0,aud,B,27,1,3B,1B,0,1,z,1.72134630000073,0,1,1,1,1B,3B,B31,3.58351893845611,0.690396384599211,0.5,0.5,0.5,0.5,0.62183133994347,0.5,0.5,0.454294216721534,0.5,0.533553592458051,0.454294216721534,0.5,0.5,0.454294216721534,0.659247681342854,0.554300203428801,0.445699796571199,0.62183133994347,0.5,0.575552088549353,0.847466554262119,0.37816866005653,0.0345689896385035,0.5,0.0914115665569327,1.01330805803582,6.66760944909761,2.37195422194813,0.5,53.4225033239996
CBC_1019,CBC_1019_MSI_AV_v3_Vset4_Aset3_2023-06-28_17h50.15.634.csv,3,22,3,2,z,0,1,1,aud,C,63,1,3C,2C,0,1,z,2.22151159999885,0,1,1,1,2C,3C,C32,2.51230562397611,0.690396384599211,0.5,0.5,0.5,0.5,0.656400329581974,0.5,0.5,0.454294216721534,0.5,0.533553592458051,0.454294216721534,0.5,0.5,0.454294216721534,0.659247681342854,0.540117199734615,0.459882800265385,0.533553592458051,0.454294216721534,0.307265656246205,0.781645980567086,0.466446407541949,0.042638596828263,0.5,0.0914115665569327,1.01330805803582,6.66760944909761,2.37195422194813,0.5,53.4225033239996
CBC_1019,CBC_1019_MSI_AV_v3_Vset4_Aset3_2023-06-28_17h50.15.634.csv,3,23,0,1,b,1,0,3,aud,A,63,0,0A,1A,0,1,b,1.16619289999835,1,0,1,0,0A,1A,A01,2.53897387105828,0.690396384599211,0.5,0.5,0.5,0.5,0.656400329581974,0.5,0.5,0.454294216721534,0.5,0.576192189286314,0.454294216721534,0.5,0.5,0.454294216721534,0.659247681342854,0.579971842599016,0.420028157400984,0.690396384599211,0.5,0.258151897623218,0.926064733257608,-0.690396384599211,-0.0631102150614565,0.5,0.0914115665569327,1.01330805803582,6.66760944909761,2.37195422194813,0.5,53.4225033239996
CBC_1019,CBC_1019_MSI_AV_v3_Vset4_Aset3_2023-06-28_17h50.15.634.csv,3,24,2,1,z,0,1,0,aud,B,9,1,2B,1B,0,1,z,1.42438859999857,0,1,1,1,1B,2B,B21,3.66356164612965,0.627286169537755,0.5,0.5,0.5,0.5,0.656400329581974,0.5,0.5,0.454294216721534,0.5,0.576192189286314,0.454294216721534,0.5,0.5,0.454294216721534,0.659247681342854,0.567623782863548,0.432376217136452,0.656400329581974,0.5,0.80016216707906,0.894751737036146,0.343599670418026,0.0314089841413576,0.5,0.0914115665569327,1.01330805803582,6.66760944909761,2.37195422194813,0.5,53.4225033239996
CBC_1019,CBC_1019_MSI_AV_v3_Vset4_Aset3_2023-06-28_17h50.15.634.csv,3,25,2,3,b,1,0,1,aud,C,63,1,2C,3C,1,0,b,2.03215799999998,1,0,1,1,2C,3C,C23,2.99573227355399,0.627286169537755,0.5,0.5,0.5,0.5,0.687809313723331,0.5,0.5,0.454294216721534,0.5,0.576192189286314,0.454294216721534,0.5,0.5,0.454294216721534,0.659247681342854,0.559145842125671,0.440854157874329,0.576192189286314,0.454294216721534,0.423040076451757,0.866492911170435,0.423807810713686,0.038740935896402,0.5,0.0914115665569327,1.01330805803582,6.66760944909761,2.37195422194813,0.5,53.4225033239996
CBC_1019,CBC_1019_MSI_AV_v3_Vset4_Aset3_2023-06-28_17h50.15.634.csv,3,26,2,3,z,0,1,2,aud,D,63,1,2D,3D,0,1,z,1.4924749999991,0,1,1,1,3D,2D,D23,3.71357206670431,0.627286169537755,0.5,0.5,0.5,0.5,0.687809313723331,0.5,0.5,0.454294216721534,0.5,0.614933125182716,0.454294216721534,0.5,0.5,0.454294216721534,0.659247681342854,0.59202772925634,0.40797227074366,0.659247681342854,0.454294216721534,0.982718719640351,0.948474911000939,0.340752318657146,0.0311487032563568,0.5,0.0914115665569327,1.01330805803582,6.66760944909761,2.37195422194813,0.5,53.4225033239996
CBC_1019,CBC_1019_MSI_AV_v3_Vset4_Aset3_2023-06-28_17h50.15.634.csv,3,27,0,1,z,0,1,0,aud,B,63,1,0B,1B,0,1,z,2.31944780000049,0,1,1,1,1B,0B,B01,2.63905732961526,0.627286169537755,0.5,0.5,0.5,0.5,0.687809313723331,0.5,0.5,0.454294216721534,0.5,0.614933125182716,0.454294216721534,0.5,0.5,0.454294216721534,0.690396384599211,0.579057013425253,0.420942986574747,0.687809313723331,0.5,0.299922592635769,0.924228300216605,0.312190686276669,0.0285378396970342,0.5,0.0914115665569327,1.01330805803582,6.66760944909761,2.37195422194813,0.5,53.4225033239996
CBC_1019,CBC_1019_MSI_AV_v3_Vset4_Aset3_2023-06-28_17h50.15.634.csv,3,28,0,2,b,1,0,3,aud,A,27,1,0A,2A,1,0,b,2.3355317000005,1,0,1,1,0A,2A,A02,3.76120011569356,0.627286169537755,0.5,0.5,0.5,0.5,0.716347153420365,0.5,0.5,0.454294216721534,0.5,0.614933125182716,0.454294216721534,0.5,0.5,0.454294216721534,0.690396384599211,0.556456901972792,0.443543098027208,0.627286169537755,0.5,0.293916957842405,0.856569338186328,0.372713830462245,0.0340703551199889,0.5,0.0914115665569327,1.01330805803582,6.66760944909761,2.37195422194813,0.5,53.4225033239996
CBC_1019,CBC_1019_MSI_AV_v3_Vset4_Aset3_2023-06-28_17h50.15.634.csv,3,29,1,3,z,0,1,2,aud,D,27,1,1D,3D,0,1,z,1.38920909999979,0,1,1,1,3D,1D,D13,3.09104245335832,0.661356524657744,0.5,0.5,0.5,0.5,0.716347153420365,0.5,0.5,0.454294216721534,0.5,0.614933125182716,0.454294216721534,0.5,0.5,0.454294216721534,0.690396384599211,0.579971842599016,0.420028157400984,0.690396384599211,0.5,0.904240488750964,0.926175760229019,0.309603615400789,0.0283013514954762,0.5,0.0914115665569327,1.01330805803582,6.66760944909761,2.37195422194813,0.5,53.4225033239996
CBC_1019,CBC_1019_MSI_AV_v3_Vset4_Aset3_2023-06-28_17h50.15.634.csv,3,30,1,0,z,0,1,3,aud,A,63,1,1A,0A,0,1,z,1.2232382000002,0,1,1,1,0A,1A,A10,3.11351530921037,0.661356524657744,0.5,0.5,0.5,0.5,0.716347153420365,0.5,0.5,0.454294216721534,0.5,0.614933125182716,0.454294216721534,0.5,0.5,0.454294216721534,0.718697736094687,0.569468987874028,0.430531012125972,0.661356524657744,0.5,0.473190550533171,0.900026881374309,0.338643475342256,0.0309559305853197,0.5,0.0914115665569327,1.01330805803582,6.66760944909761,2.37195422194813,0.5,53.4225033239996
CBC_1019,CBC_1019_MSI_AV_v3_Vset4_Aset3_2023-06-28_17h50.15.634.csv,3,31,2,0,b,1,0,1,aud,C,27,1,2C,0C,1,0,b,1.86285029999999,1,0,1,1,2C,0C,C20,3.8286413964891,0.692312455243063,0.5,0.5,0.5,0.5,0.716347153420365,0.5,0.5,0.454294216721534,0.5,0.614933125182716,0.454294216721534,0.5,0.5,0.454294216721534,0.718697736094687,0.575119154816548,0.424880845183452,0.614933125182716,0.454294216721534,0.563382322523569,0.914995817082755,0.385066874817284,0.0351995662562302,0.5,0.0914115665569327,1.01330805803582,6.66760944909761,2.37195422194813,0.5,53.4225033239996
CBC_1019,CBC_1019_MSI_AV_v3_Vset4_Aset3_2023-06-28_17h50.15.634.csv,3,32,2,3,z,0,1,2,aud,D,63,1,2D,3D,0,1,z,1.36424269999952,0,1,1,1,3D,2D,D23,3.15700042115011,0.692312455243063,0.5,0.5,0.5,0.5,0.716347153420365,0.5,0.5,0.454294216721534,0.5,0.650132691438947,0.454294216721534,0.5,0.5,0.454294216721534,0.718697736094687,0.612704745645676,0.387295254354324,0.718697736094687,0.454294216721534,1.22725091364836,0.972508791056423,0.281302263905313,0.0257142806195963,0.5,0.0914115665569327,1.01330805803582,6.66760944909761,2.37195422194813,0.5,53.4225033239996
CBC_1019,CBC_1019_MSI_AV_v3_Vset4_Aset3_2023-06-28_17h50.15.634.csv,3,33,1,0,b,1,0,0,aud,B,63,1,1B,0B,1,0,b,1.77653400000054,1,0,1,1,1B,0B,B10,2.77258872223978,0.692312455243063,0.5,0.5,0.5,0.5,0.716347153420365,0.5,0.5,0.454294216721534,0.5,0.650132691438947,0.454294216721534,0.5,0.5,0.454294216721534,0.744412016714284,0.588933144132412,0.411066855867588,0.716347153420365,0.5,0.672333604084742,0.943205383406901,0.283652846579635,0.0259291510641777,0.5,0.0914115665569327,1.01330805803582,6.66760944909761,2.37195422194813,0.5,53.4225033239996
CBC_1019,CBC_1019_MSI_AV_v3_Vset4_Aset3_2023-06-28_17h50.15.634.csv,3,34,0,1,b,1,0,3,aud,A,63,1,0A,1A,1,0,b,1.4633963999986,1,0,1,1,0A,1A,A01,2.50552593699074,0.692312455243063,0.5,0.5,0.5,0.5,0.742276304484543,0.5,0.5,0.454294216721534,0.5,0.650132691438947,0.454294216721534,0.5,0.5,0.454294216721534,0.744412016714284,0.580646836488787,0.419353163511213,0.692312455243063,0.5,0.907042318383326,0.927792078229531,0.307687544756937,0.0281262004762879,0.5,0.0914115665569327,1.01330805803582,6.66760944909761,2.37195422194813,0.5,53.4225033239996
CBC_1019,CBC_1019_MSI_AV_v3_Vset4_Aset3_2023-06-28_17h50.15.634.csv,3,35,2,3,z,0,1,2,aud,D,63,0,2D,3D,1,0,z,2.88611739999942,0,1,1,0,3D,2D,D23,2.81341071676004,0.720438655719351,0.5,0.5,0.5,0.5,0.742276304484543,0.5,0.5,0.454294216721534,0.5,0.650132691438947,0.454294216721534,0.5,0.5,0.454294216721534,0.744412016714284,0.621012885351065,0.378987114648935,0.744412016714284,0.454294216721534,0.0640982901936032,0.978630634520707,-0.744412016714284,-0.0680478686116583,0.5,0.0914115665569327,1.01330805803582,6.66760944909761,2.37195422194813,0.5,53.4225033239996
CBC_1019,CBC_1019_MSI_AV_v3_Vset4_Aset3_2023-06-28_17h50.15.634.csv,3,36,2,0,b,1,0,1,aud,C,27,1,2C,0C,1,0,b,2.18244529999902,1,0,1,1,2C,0C,C20,3.23867845216438,0.720438655719351,0.5,0.5,0.5,0.5,0.742276304484543,0.5,0.5,0.454294216721534,0.5,0.650132691438947,0.454294216721534,0.5,0.5,0.454294216721534,0.676364148102626,0.588660676985677,0.411339323014323,0.650132691438947,0.454294216721534,0.359220456235039,0.942833673040182,0.349867308561053,0.0319819187626236,0.5,0.0914115665569327,1.01330805803582,6.66760944909761,2.37195422194813,0.5,53.4225033239996
CBC_1019,CBC_1019_MSI_AV_v3_Vset4_Aset3_2023-06-28_17h50.15.634.csv,3,37,0,1,b,1,0,3,aud,A,63,1,0A,1A,1,0,b,1.42742510000062,1,0,1,1,0A,1A,A01,2.34180580614733,0.720438655719351,0.5,0.5,0.5,0.5,0.742276304484543,0.5,0.5,0.454294216721534,0.5,0.68211461020157,0.454294216721534,0.5,0.5,0.454294216721534,0.676364148102626,0.590311239604837,0.409688760395163,0.720438655719351,0.5,1.00505283499986,0.94588268891499,0.279561344280649,0.0255551404294561,0.5,0.0914115665569327,1.01330805803582,6.66760944909761,2.37195422194813,0.5,53.4225033239996
CBC_1019,CBC_1019_MSI_AV_v3_Vset4_Aset3_2023-06-28_17h50.15.634.csv,3,38,1,3,b,1,0,0,aud,B,27,1,1B,3B,1,0,b,1.31735229999867,1,0,1,1,1B,3B,B13,3.27714473299218,0.745993796148807,0.5,0.5,0.5,0.5,0.742276304484543,0.5,0.5,0.454294216721534,0.5,0.68211461020157,0.454294216721534,0.5,0.5,0.454294216721534,0.676364148102626,0.597513050683628,0.402486949316372,0.742276304484543,0.5,1.01030734683856,0.956328449412629,0.257723695515457,0.0235589267459098,0.5,0.0914115665569327,1.01330805803582,6.66760944909761,2.37195422194813,0.5,53.4225033239996
CBC_1019,CBC_1019_MSI_AV_v3_Vset4_Aset3_2023-06-28_17h50.15.634.csv,3,39,3,2,z,0,1,1,aud,C,63,1,3C,2C,0,1,z,3.5346101999985,0,1,1,1,2C,3C,C32,2.60268968544438,0.745993796148807,0.5,0.5,0.5,0.5,0.765835231230453,0.5,0.5,0.454294216721534,0.5,0.68211461020157,0.454294216721534,0.5,0.5,0.454294216721534,0.676364148102626,0.600236986937559,0.399763013062441,0.68211461020157,0.454294216721534,0.0313772183050016,0.959725279536218,0.31788538979843,0.0290584014670357,0.5,0.0914115665569327,1.01330805803582,6.66760944909761,2.37195422194813,0.5,53.4225033239996
CBC_1019,CBC_1019_MSI_AV_v3_Vset4_Aset3_2023-06-28_17h50.15.634.csv,3,40,3,2,b,1,0,2,aud,D,63,1,3D,2D,1,0,b,1.61539710000034,1,0,1,1,3D,2D,D32,2.62103882411258,0.745993796148807,0.5,0.5,0.5,0.5,0.765835231230453,0.5,0.5,0.454294216721534,0.5,0.711173011668606,0.454294216721534,0.5,0.5,0.454294216721534,0.676364148102626,0.59820381571034,0.40179618428966,0.676364148102626,0.454294216721534,0.887932592649916,0.957140641952692,0.323635851897374,0.0295840602159265,0.5,0.0914115665569327,1.01330805803582,6.66760944909761,2.37195422194813,0.5,53.4225033239996
CBC_1019,CBC_1019_MSI_AV_v3_Vset4_Aset3_2023-06-28_17h50.15.634.csv,3,41,0,1,z,0,1,0,aud,B,63,1,0B,1B,0,1,z,1.59898009999779,0,1,1,1,1B,0B,B01,2.63905732961526,0.745993796148807,0.5,0.5,0.5,0.5,0.765835231230453,0.5,0.5,0.454294216721534,0.5,0.711173011668606,0.454294216721534,0.5,0.5,0.454294216721534,0.705948208318552,0.605003883867274,0.394996116132726,0.765835231230453,0.5,0.941275929254265,0.965121399807208,0.234164768769547,0.0214053683456662,0.5,0.0914115665569327,1.01330805803582,6.66760944909761,2.37195422194813,0.5,53.4225033239996
CBC_1019,CBC_1019_MSI_AV_v3_Vset4_Aset3_2023-06-28_17h50.15.634.csv,3,42,2,0,z,0,1,3,aud,A,27,1,2A,0A,0,1,z,2.31304269999782,0,1,1,1,0A,2A,A20,3.3499040872746,0.745993796148807,0.5,0.5,0.5,0.5,0.787240599576119,0.5,0.5,0.454294216721534,0.5,0.711173011668606,0.454294216721534,0.5,0.5,0.454294216721534,0.705948208318552,0.598713892841658,0.401286107158342,0.745993796148807,0.5,0.275913088415116,0.957751102480403,0.254006203851193,0.0232191050092171,0.5,0.0914115665569327,1.01330805803582,6.66760944909761,2.37195422194813,0.5,53.4225033239996
CBC_1019,CBC_1019_MSI_AV_v3_Vset4_Aset3_2023-06-28_17h50.15.634.csv,3,43,3,0,b,1,0,2,aud,D,9,1,3D,0D,1,0,b,1.58661599999868,1,0,1,1,3D,0D,D30,4.06044301054642,0.769212901158024,0.5,0.5,0.5,0.5,0.787240599576119,0.5,0.5,0.454294216721534,0.5,0.711173011668606,0.454294216721534,0.5,0.5,0.454294216721534,0.705948208318552,0.585388496329251,0.414611503670749,0.705948208318552,0.5,0.851375942549877,0.937354740571995,0.294051791681448,0.026879734926474,0.5,0.0914115665569327,1.01330805803582,6.66760944909761,2.37195422194813,0.5,53.4225033239996
CBC_1019,CBC_1019_MSI_AV_v3_Vset4_Aset3_2023-06-28_17h50.15.634.csv,3,44,3,2,z,0,1,1,aud,C,63,1,3C,2C,0,1,b,3.68961820000004,1,0,0,0,3C,2C,C32,2.46809953147162,0.769212901158024,0.5,0.5,0.5,0.5,0.787240599576119,0.5,0.5,0.454294216721534,0.5,0.711173011668606,0.454294216721534,0.5,0.5,0.454294216721534,0.732827943245026,0.389795788036915,0.610204211963085,0.454294216721534,0.711173011668606,0.00052052783265055,0.0297506954189536,-0.454294216721534,-0.0415277460282701,0.5,0.0914115665569327,1.01330805803582,6.66760944909761,2.37195422194813,0.5,53.4225033239996
CBC_1019,CBC_1019_MSI_TV_v3_Vset1_Tset3_2023-06-28_18h00.13.129.csv,4,1,0,1,z,0,1,0,tac,B,63,1,0B,1B,0,1,b,2.3024619,1,0,0,0,0B,1B,B01,2.77258872223978,0.5,0.5,0.5,0.5,0.5,0.5,0.5,0.5,0.5,0.5,0.5,0.5,0.5,0.5,0.5,0.5,0.5,0.5,0.5,0.5,0.148592263813303,0.500187011196966,-0.5,-0.021682989668511,0.5,0.0433659793370219,0.793095149431967,11.0914716565588,3.14333765761816,0.5,64.490920730899
CBC_1019,CBC_1019_MSI_TV_v3_Vset1_Tset3_2023-06-28_18h00.13.129.csv,4,2,0,1,b,1,0,3,tac,A,63,1,0A,1A,1,0,b,2.6774856,1,0,1,1,0A,1A,A01,2.83321334405622,0.5,0.5,0.5,0.5,0.478317010331489,0.5,0.5,0.5,0.5,0.5,0.5,0.5,0.5,0.5,0.5,0.5,0.5,0.5,0.5,0.5,0.123824224088984,0.499855232584818,0.5,0.021682989668511,0.5,0.0433659793370219,0.793095149431967,11.0914716565588,3.14333765761816,0.5,64.490920730899
CBC_1019,CBC_1019_MSI_TV_v3_Vset1_Tset3_2023-06-28_18h00.13.129.csv,4,3,2,3,z,0,1,2,tac,D,63,1,2D,3D,0,1,b,2.57605,1,0,0,0,2D,3D,D23,2.89037175789616,0.521682989668511,0.5,0.5,0.5,0.478317010331489,0.5,0.5,0.5,0.5,0.5,0.5,0.5,0.5,0.5,0.5,0.5,0.5,0.5,0.5,0.5,0.130149880684855,0.499839814573225,-0.5,-0.021682989668511,0.5,0.0433659793370219,0.793095149431967,11.0914716565588,3.14333765761816,0.5,64.490920730899
CBC_1019,CBC_1019_MSI_TV_v3_Vset1_Tset3_2023-06-28_18h00.13.129.csv,4,4,2,1,z,0,1,0,tac,B,9,1,2B,1B,0,1,b,2.5355877,1,0,0,0,2B,1B,B21,2.94443897916644,0.521682989668511,0.5,0.5,0.5,0.478317010331489,0.5,0.5,0.5,0.5,0.5,0.5,0.5,0.5,0.5,0.478317010331489,0.5,0.5,0.5,0.5,0.5,0.132484080461892,0.4988368959466,-0.5,-0.021682989668511,0.5,0.0433659793370219,0.793095149431967,11.0914716565588,3.14333765761816,0.5,64.490920730899
CBC_1019,CBC_1019_MSI_TV_v3_Vset1_Tset3_2023-06-28_18h00.13.129.csv,4,5,0,2,b,1,0,3,tac,A,27,1,0A,2A,1,0,b,2.6058723,1,0,1,1,0A,2A,A02,2.99573227355399,0.521682989668511,0.5,0.5,0.5,0.478317010331489,0.5,0.478317010331489,0.5,0.5,0.5,0.5,0.5,0.5,0.5,0.478317010331489,0.5,0.510611407788803,0.489388592211198,0.521682989668511,0.5,0.176614576886513,0.676887174688015,0.478317010331489,0.0207426855865815,0.5,0.0433659793370219,0.793095149431967,11.0914716565588,3.14333765761816,0.5,64.490920730899
CBC_1019,CBC_1019_MSI_TV_v3_Vset1_Tset3_2023-06-28_18h00.13.129.csv,4,6,2,3,b,1,0,1,tac,C,63,1,2C,3C,1,0,z,2.5756628,0,1,0,0,3C,2C,C23,3.04452243772342,0.542425675255092,0.5,0.5,0.5,0.478317010331489,0.5,0.478317010331489,0.5,0.5,0.5,0.5,0.5,0.5,0.5,0.478317010331489,0.5,0.5,0.5,0.5,0.5,0.130254871471511,0.500148177929295,-0.5,-0.021682989668511,0.5,0.0433659793370219,0.793095149431967,11.0914716565588,3.14333765761816,0.5,64.490920730899
CBC_1019,CBC_1019_MSI_TV_v3_Vset1_Tset3_2023-06-28_18h00.13.129.csv,4,7,1,3,z,0,1,2,tac,D,27,1,1D,3D,0,1,z,2.9212902,0,1,1,1,3D,1D,D13,3.09104245335832,0.542425675255092,0.5,0.5,0.5,0.478317010331489,0.5,0.478317010331489,0.5,0.5,0.5,0.5,0.478317010331489,0.5,0.5,0.478317010331489,0.5,0.5,0.5,0.5,0.5,0.109856589033603,0.500393103584171,0.5,0.021682989668511,0.5,0.0433659793370219,0.793095149431967,11.0914716565588,3.14333765761816,0.5,64.490920730899
CBC_1019,CBC_1019_MSI_TV_v3_Vset1_Tset3_2023-06-28_18h00.13.129.csv,4,8,1,0,z,0,1,3,tac,A,63,1,1A,0A,0,1,z,1.3729785,0,1,1,1,0A,1A,A10,3.13549421592915,0.542425675255092,0.5,0.5,0.5,0.478317010331489,0.5,0.478317010331489,0.5,0.5,0.5,0.5,0.478317010331489,0.5,0.5,0.478317010331489,0.521682989668511,0.520349496497537,0.479650503502463,0.542425675255092,0.5,0.323340960901724,0.805109831397151,0.457574324744908,0.0198431587120394,0.5,0.0433659793370219,0.793095149431967,11.0914716565588,3.14333765761816,0.5,64.490920730899
CBC_1019,CBC_1019_MSI_TV_v3_Vset1_Tset3_2023-06-28_18h00.13.129.csv,4,9,2,0,b,1,0,1,tac,C,27,1,2C,0C,1,0,b,2.5243611,1,0,1,1,2C,0C,C20,3.17805383034795,0.562268833967132,0.5,0.5,0.5,0.478317010331489,0.5,0.478317010331489,0.5,0.5,0.5,0.5,0.478317010331489,0.5,0.5,0.478317010331489,0.521682989668511,0.5,0.5,0.5,0.5,0.13347167016301,0.499811165523789,0.5,0.021682989668511,0.5,0.0433659793370219,0.793095149431967,11.0914716565588,3.14333765761816,0.5,64.490920730899
CBC_1019,CBC_1019_MSI_TV_v3_Vset1_Tset3_2023-06-28_18h00.13.129.csv,4,10,2,3,z,0,1,2,tac,D,63,1,2D,3D,0,1,z,2.4674078,0,1,1,1,3D,2D,D23,2.52572864430826,0.562268833967132,0.5,0.5,0.5,0.478317010331489,0.5,0.478317010331489,0.5,0.5,0.5,0.521682989668511,0.478317010331489,0.5,0.5,0.478317010331489,0.521682989668511,0.521682989668511,0.478317010331489,0.521682989668511,0.478317010331489,0.240733345385708,0.819016822426429,0.478317010331489,0.0207426855865815,0.5,0.0433659793370219,0.793095149431967,11.0914716565588,3.14333765761816,0.5,64.490920730899
CBC_1019,CBC_1019_MSI_TV_v3_Vset1_Tset3_2023-06-28_18h00.13.129.csv,4,11,1,0,b,1,0,0,tac,B,63,0,1B,0B,0,1,b,2.037069,1,0,1,0,1B,0B,B10,3.25809653802148,0.562268833967132,0.5,0.5,0.5,0.478317010331489,0.5,0.478317010331489,0.5,0.5,0.5,0.521682989668511,0.478317010331489,0.5,0.5,0.478317010331489,0.542425675255092,0.511081780976682,0.488918219023318,0.5,0.478317010331489,0.237534494574776,0.68516164218732,-0.5,-0.021682989668511,0.5,0.0433659793370219,0.793095149431967,11.0914716565588,3.14333765761816,0.5,64.490920730899
CBC_1019,CBC_1019_MSI_TV_v3_Vset1_Tset3_2023-06-28_18h00.13.129.csv,4,12,0,1,b,1,0,3,tac,A,63,1,0A,1A,1,0,b,1.6263769,1,0,1,1,0A,1A,A01,2.60268968544438,0.562268833967132,0.5,0.5,0.5,0.478317010331489,0.478317010331489,0.478317010331489,0.5,0.5,0.5,0.521682989668511,0.478317010331489,0.5,0.5,0.478317010331489,0.542425675255092,0.529309357469608,0.470690642530392,0.562268833967132,0.5,0.435249201058357,0.884645115988111,0.437731166032868,0.0189826407013519,0.5,0.0433659793370219,0.793095149431967,11.0914716565588,3.14333765761816,0.5,64.490920730899
CBC_1019,CBC_1019_MSI_TV_v3_Vset1_Tset3_2023-06-28_18h00.13.129.csv,4,13,2,3,z,0,1,2,tac,D,63,1,2D,3D,0,1,z,2.2609267,0,1,1,1,3D,2D,D23,2.23359222150709,0.581251474668484,0.5,0.5,0.5,0.478317010331489,0.478317010331489,0.478317010331489,0.5,0.5,0.5,0.521682989668511,0.478317010331489,0.5,0.5,0.478317010331489,0.542425675255092,0.531402950924288,0.468597049075712,0.542425675255092,0.478317010331489,0.317066817702517,0.899397585798863,0.457574324744908,0.0198431587120394,0.5,0.0433659793370219,0.793095149431967,11.0914716565588,3.14333765761816,0.5,64.490920730899
CBC_1019,CBC_1019_MSI_TV_v3_Vset1_Tset3_2023-06-28_18h00.13.129.csv,4,14,2,0,b,1,0,1,tac,C,27,1,2C,0C,1,0,b,3.5527193,1,0,1,1,2C,0C,C20,2.67414864942653,0.581251474668484,0.5,0.5,0.5,0.478317010331489,0.478317010331489,0.478317010331489,0.5,0.5,0.5,0.521682989668511,0.478317010331489,0.5,0.5,0.478317010331489,0.562268833967132,0.510611407788803,0.489388592211198,0.521682989668511,0.5,0.107374888558636,0.676409361091073,0.478317010331489,0.0207426855865815,0.5,0.0433659793370219,0.793095149431967,11.0914716565588,3.14333765761816,0.5,64.490920730899
CBC_1019,CBC_1019_MSI_TV_v3_Vset1_Tset3_2023-06-28_18h00.13.129.csv,4,15,0,1,b,1,0,3,tac,A,63,1,0A,1A,1,0,b,1.7953932,1,0,1,1,0A,1A,A01,2.30258509299405,0.581251474668484,0.5,0.5,0.5,0.478317010331489,0.478317010331489,0.478317010331489,0.5,0.5,0.5,0.542425675255092,0.478317010331489,0.5,0.5,0.478317010331489,0.562268833967132,0.537572885018906,0.462427114981094,0.581251474668484,0.5,0.476367031086143,0.931932457844036,0.418748525331516,0.0181594398969349,0.5,0.0433659793370219,0.793095149431967,11.0914716565588,3.14333765761816,0.5,64.490920730899
CBC_1019,CBC_1019_MSI_TV_v3_Vset1_Tset3_2023-06-28_18h00.13.129.csv,4,16,1,3,b,1,0,0,tac,B,27,1,1B,3B,1,0,b,3.3852924,1,0,1,1,1B,3B,B13,3.43398720448515,0.599410914565419,0.5,0.5,0.5,0.478317010331489,0.478317010331489,0.478317010331489,0.5,0.5,0.5,0.542425675255092,0.478317010331489,0.5,0.5,0.478317010331489,0.562268833967132,0.488918219023318,0.511081780976682,0.478317010331489,0.5,0.054608243229959,0.315187724334034,0.521682989668511,0.0226232937504405,0.5,0.0433659793370219,0.793095149431967,11.0914716565588,3.14333765761816,0.5,64.490920730899
CBC_1019,CBC_1019_MSI_TV_v3_Vset1_Tset3_2023-06-28_18h00.13.129.csv,4,17,3,2,z,0,1,1,tac,C,63,1,3C,2C,0,1,b,2.3441867,1,0,0,0,3C,2C,C32,3.46573590279973,0.599410914565419,0.5,0.5,0.5,0.478317010331489,0.500940304081929,0.478317010331489,0.5,0.5,0.5,0.542425675255092,0.478317010331489,0.5,0.5,0.478317010331489,0.562268833967132,0.468597049075712,0.531402950924288,0.478317010331489,0.542425675255092,0.0335093830377638,0.100885549314702,-0.478317010331489,-0.0207426855865815,0.5,0.0433659793370219,0.793095149431967,11.0914716565588,3.14333765761816,0.5,64.490920730899
CBC_1019,CBC_1019_MSI_TV_v3_Vset1_Tset3_2023-06-28_18h00.13.129.csv,4,18,2,3,z,0,1,2,tac,D,63,0,2D,3D,1,0,z,2.4753489,0,1,1,0,3D,2D,D23,2.11021320034659,0.599410914565419,0.5,0.5,0.5,0.478317010331489,0.500940304081929,0.478317010331489,0.5,0.5,0.5,0.542425675255092,0.457574324744908,0.5,0.5,0.478317010331489,0.562268833967132,0.540338730387125,0.459661269612875,0.562268833967132,0.478317010331489,0.284545002456793,0.943165496019396,-0.562268833967132,-0.02438333863567,0.5,0.0433659793370219,0.793095149431967,11.0914716565588,3.14333765761816,0.5,64.490920730899
CBC_1019,CBC_1019_MSI_TV_v3_Vset1_Tset3_2023-06-28_18h00.13.129.csv,4,19,1,0,b,1,0,0,tac,B,63,1,1B,0B,1,0,b,1.6834246,1,0,1,1,1B,0B,B10,2.83321334405622,0.599410914565419,0.5,0.5,0.5,0.478317010331489,0.500940304081929,0.478317010331489,0.5,0.5,0.5,0.542425675255092,0.457574324744908,0.5,0.5,0.478317010331489,0.537885495331462,0.511551250839516,0.488448749160484,0.500940304081929,0.478317010331489,0.270644163857262,0.690820101401507,0.499059695918071,0.0216422124611235,0.5,0.0433659793370219,0.793095149431967,11.0914716565588,3.14333765761816,0.5,64.490920730899
CBC_1019,CBC_1019_MSI_TV_v3_Vset1_Tset3_2023-06-28_18h00.13.129.csv,4,20,2,0,z,0,1,3,tac,A,27,1,2A,0A,0,1,z,1.2793285,0,1,1,1,0A,2A,A20,3.55534806148941,0.599410914565419,0.5,0.5,0.5,0.478317010331489,0.522582516543053,0.478317010331489,0.5,0.5,0.5,0.542425675255092,0.457574324744908,0.5,0.5,0.478317010331489,0.537885495331462,0.545210991290147,0.454789008709853,0.599410914565419,0.5,0.55288890219928,0.959117355830319,0.400589085434581,0.0173719380015926,0.5,0.0433659793370219,0.793095149431967,11.0914716565588,3.14333765761816,0.5,64.490920730899
CBC_1019,CBC_1019_MSI_TV_v3_Vset1_Tset3_2023-06-28_18h00.13.129.csv,4,21,0,3,z,0,1,2,tac,D,9,1,0D,3D,0,1,z,2.1857573,0,1,1,1,3D,0D,D03,3.58351893845611,0.616782852567011,0.5,0.5,0.5,0.478317010331489,0.522582516543053,0.478317010331489,0.5,0.5,0.5,0.542425675255092,0.457574324744908,0.5,0.5,0.478317010331489,0.537885495331462,0.518251288558264,0.481748711441736,0.537885495331462,0.5,0.264008425247955,0.780665059344939,0.462114504668538,0.0200400480607939,0.5,0.0433659793370219,0.793095149431967,11.0914716565588,3.14333765761816,0.5,64.490920730899
CBC_1019,CBC_1019_MSI_TV_v3_Vset1_Tset3_2023-06-28_18h00.13.129.csv,4,22,2,3,b,1,0,1,tac,C,63,1,2C,3C,1,0,b,2.6993144,1,0,1,1,2C,3C,C23,2.91777073208428,0.616782852567011,0.5,0.5,0.5,0.478317010331489,0.522582516543053,0.478317010331489,0.5,0.5,0.5,0.542425675255092,0.457574324744908,0.5,0.5,0.478317010331489,0.557925543392256,0.542425675255092,0.457574324744908,0.542425675255092,0.457574324744908,0.231198851330905,0.950692184429741,0.457574324744908,0.0198431587120394,0.5,0.0433659793370219,0.793095149431967,11.0914716565588,3.14333765761816,0.5,64.490920730899
CBC_1019,CBC_1019_MSI_TV_v3_Vset1_Tset3_2023-06-28_18h00.13.129.csv,4,23,3,1,z,0,1,0,tac,B,27,1,3B,1B,0,1,z,2.304894,0,1,1,1,1B,3B,B31,3.63758615972639,0.616782852567011,0.5,0.5,0.5,0.478317010331489,0.522582516543053,0.478317010331489,0.5,0.5,0.5,0.562268833967132,0.457574324744908,0.5,0.5,0.478317010331489,0.557925543392256,0.511041904285336,0.488958095714664,0.522582516543053,0.5,0.208263279236963,0.683223411773097,0.477417483456947,0.020703676722727,0.5,0.0433659793370219,0.793095149431967,11.0914716565588,3.14333765761816,0.5,64.490920730899
CBC_1019,CBC_1019_MSI_TV_v3_Vset1_Tset3_2023-06-28_18h00.13.129.csv,4,24,3,2,z,0,1,1,tac,C,63,1,3C,2C,0,1,z,2.3873498,0,1,1,1,2C,3C,C32,2.9704144655697,0.616782852567011,0.5,0.5,0.5,0.478317010331489,0.54328619326578,0.478317010331489,0.5,0.5,0.5,0.562268833967132,0.457574324744908,0.5,0.5,0.478317010331489,0.557925543392256,0.551328730465988,0.448671269534012,0.562268833967132,0.457574324744908,0.30394877166312,0.972772298139913,0.437731166032868,0.0189826407013519,0.5,0.0433659793370219,0.793095149431967,11.0914716565588,3.14333765761816,0.5,64.490920730899
CBC_1019,CBC_1019_MSI_TV_v3_Vset1_Tset3_2023-06-28_18h00.13.129.csv,4,25,2,3,z,0,1,2,tac,D,63,1,2D,3D,0,1,z,2.3175106,0,1,1,1,3D,2D,D23,2.07944154167984,0.616782852567011,0.5,0.5,0.5,0.478317010331489,0.54328619326578,0.478317010331489,0.5,0.5,0.5,0.581251474668484,0.457574324744908,0.5,0.5,0.478317010331489,0.557925543392256,0.538412113445203,0.461587886554797,0.557925543392256,0.478317010331489,0.323666059018626,0.935862251328286,0.442074456607744,0.0191709917506766,0.5,0.0433659793370219,0.793095149431967,11.0914716565588,3.14333765761816,0.5,64.490920730899
CBC_1019,CBC_1019_MSI_TV_v3_Vset1_Tset3_2023-06-28_18h00.13.129.csv,4,26,1,0,b,1,0,0,tac,B,63,1,1B,0B,1,0,b,3.5240417,1,0,1,1,1B,0B,B10,2.6149597780362,0.616782852567011,0.5,0.5,0.5,0.478317010331489,0.54328619326578,0.478317010331489,0.5,0.5,0.5,0.581251474668484,0.457574324744908,0.5,0.5,0.478317010331489,0.577096535142932,0.531797660141198,0.468202339858802,0.54328619326578,0.478317010331489,0.124757869417538,0.902366421606309,0.45671380673422,0.0198058415057688,0.5,0.0433659793370219,0.793095149431967,11.0914716565588,3.14333765761816,0.5,64.490920730899
CBC_1019,CBC_1019_MSI_TV_v3_Vset1_Tset3_2023-06-28_18h00.13.129.csv,4,27,0,3,b,1,0,3,tac,A,9,1,0A,3A,1,0,b,1.144349,1,0,1,1,0A,3A,A03,3.73766961828337,0.616782852567011,0.5,0.5,0.5,0.478317010331489,0.563092034771549,0.478317010331489,0.5,0.5,0.5,0.581251474668484,0.457574324744908,0.5,0.5,0.478317010331489,0.577096535142932,0.552285389365792,0.447714610634208,0.616782852567011,0.5,0.436321280770686,0.974402082412408,0.383217147432989,0.0166185868971715,0.5,0.0433659793370219,0.793095149431967,11.0914716565588,3.14333765761816,0.5,64.490920730899
CBC_1019,CBC_1019_MSI_TV_v3_Vset1_Tset3_2023-06-28_18h00.13.129.csv,4,28,2,3,z,0,1,2,tac,D,63,1,2D,3D,0,1,z,2.4462701,0,1,1,1,3D,2D,D23,1.96944064646551,0.633401439464183,0.5,0.5,0.5,0.478317010331489,0.563092034771549,0.478317010331489,0.5,0.5,0.5,0.581251474668484,0.457574324744908,0.5,0.5,0.478317010331489,0.577096535142932,0.546796597047199,0.453203402952801,0.577096535142932,0.478317010331489,0.290886421529118,0.963156759060997,0.422903464857068,0.0183396229185466,0.5,0.0433659793370219,0.793095149431967,11.0914716565588,3.14333765761816,0.5,64.490920730899
CBC_1019,CBC_1019_MSI_TV_v3_Vset1_Tset3_2023-06-28_18h00.13.129.csv,4,29,2,0,b,1,0,1,tac,C,27,1,2C,0C,1,0,b,2.1984098,1,0,1,1,2C,0C,C20,2.68557734525015,0.633401439464183,0.5,0.5,0.5,0.478317010331489,0.563092034771549,0.478317010331489,0.5,0.5,0.5,0.581251474668484,0.457574324744908,0.5,0.5,0.478317010331489,0.595436158061479,0.537572885018906,0.462427114981094,0.581251474668484,0.5,0.354626575179993,0.932226227427175,0.418748525331516,0.0181594398969349,0.5,0.0433659793370219,0.793095149431967,11.0914716565588,3.14333765761816,0.5,64.490920730899
CBC_1019,CBC_1019_MSI_TV_v3_Vset1_Tset3_2023-06-28_18h00.13.129.csv,4,30,1,0,z,0,1,3,tac,A,63,0,1A,0A,1,0,z,1.8848253,0,1,1,0,0A,1A,A10,3.11351530921037,0.633401439464183,0.5,0.5,0.5,0.478317010331489,0.563092034771549,0.478317010331489,0.5,0.5,0.5,0.599410914565419,0.457574324744908,0.5,0.5,0.478317010331489,0.595436158061479,0.558850039720811,0.441149960279189,0.633401439464183,0.5,0.54404705840403,0.983720210020935,-0.633401439464183,-0.0274680737358437,0.5,0.0433659793370219,0.793095149431967,11.0914716565588,3.14333765761816,0.5,64.490920730899
CBC_1019,CBC_1019_MSI_TV_v3_Vset1_Tset3_2023-06-28_18h00.13.129.csv,4,31,1,0,b,1,0,0,tac,B,63,1,1B,0B,1,0,b,1.6043737,1,0,1,1,1B,0B,B10,2.4423470353692,0.605933365728339,0.5,0.5,0.5,0.478317010331489,0.563092034771549,0.478317010331489,0.5,0.5,0.5,0.599410914565419,0.457574324744908,0.5,0.5,0.478317010331489,0.595436158061479,0.540702078034896,0.459297921965104,0.563092034771549,0.478317010331489,0.5554267585948,0.944522498461931,0.436907965228451,0.0189469417922773,0.5,0.0433659793370219,0.793095149431967,11.0914716565588,3.14333765761816,0.5,64.490920730899
CBC_1019,CBC_1019_MSI_TV_v3_Vset1_Tset3_2023-06-28_18h00.13.129.csv,4,32,3,1,b,1,0,2,tac,D,27,1,3D,1D,1,0,b,2.2580061,1,0,1,1,3D,1D,D31,3.85014760171006,0.605933365728339,0.5,0.5,0.5,0.478317010331489,0.582038976563826,0.478317010331489,0.5,0.5,0.5,0.599410914565419,0.457574324744908,0.5,0.5,0.478317010331489,0.595436158061479,0.543560803319824,0.456439196680176,0.595436158061479,0.5,0.349390132485915,0.954045665882335,0.404563841938521,0.0175443072100121,0.5,0.0433659793370219,0.793095149431967,11.0914716565588,3.14333765761816,0.5,64.490920730899
CBC_1019,CBC_1019_MSI_TV_v3_Vset1_Tset3_2023-06-28_18h00.13.129.csv,4,33,3,2,z,0,1,1,tac,C,63,1,3C,2C,0,1,z,2.3263371,0,1,1,1,2C,3C,C32,2.77258872223978,0.605933365728339,0.5,0.5,0.5,0.478317010331489,0.582038976563826,0.478317010331489,0.5,0.5,0.5,0.599410914565419,0.457574324744908,0.5,0.5,0.478317010331489,0.612980465271491,0.567094877272391,0.432905122727609,0.599410914565419,0.457574324744908,0.279019720830692,0.990762089399001,0.400589085434581,0.0173719380015926,0.5,0.0433659793370219,0.793095149431967,11.0914716565588,3.14333765761816,0.5,64.490920730899
CBC_1019,CBC_1019_MSI_TV_v3_Vset1_Tset3_2023-06-28_18h00.13.129.csv,4,34,1,0,b,1,0,0,tac,B,63,1,1B,0B,1,0,b,2.2942504,1,0,1,1,1B,0B,B10,2.28238238567653,0.605933365728339,0.5,0.5,0.5,0.478317010331489,0.582038976563826,0.478317010331489,0.5,0.5,0.5,0.616782852567011,0.457574324744908,0.5,0.5,0.478317010331489,0.612980465271491,0.548909030322935,0.451090969677065,0.582038976563826,0.478317010331489,0.339097530224695,0.968140994619669,0.417961023436174,0.0181252891060136,0.5,0.0433659793370219,0.793095149431967,11.0914716565588,3.14333765761816,0.5,64.490920730899
CBC_1019,CBC_1019_MSI_TV_v3_Vset1_Tset3_2023-06-28_18h00.13.129.csv,4,35,0,1,b,1,0,3,tac,A,63,1,0A,1A,1,0,b,0.9883907,1,0,1,1,0A,1A,A01,2.52572864430826,0.605933365728339,0.5,0.5,0.5,0.478317010331489,0.60016426566984,0.478317010331489,0.5,0.5,0.5,0.616782852567011,0.457574324744908,0.5,0.5,0.478317010331489,0.612980465271491,0.547893195472303,0.452106804527697,0.605933365728339,0.5,0.0620942702805026,0.96594305437867,0.394066634271661,0.0170890855192346,0.5,0.0433659793370219,0.793095149431967,11.0914716565588,3.14333765761816,0.5,64.490920730899
CBC_1019,CBC_1019_MSI_TV_v3_Vset1_Tset3_2023-06-28_18h00.13.129.csv,4,36,1,2,z,0,1,1,tac,C,9,1,1C,2C,0,1,z,2.569847,0,1,1,1,2C,1C,C12,3.93182563272433,0.623022451247573,0.5,0.5,0.5,0.478317010331489,0.60016426566984,0.478317010331489,0.5,0.5,0.5,0.616782852567011,0.457574324744908,0.5,0.5,0.478317010331489,0.612980465271491,0.552285389365792,0.447714610634208,0.616782852567011,0.5,0.24451868678449,0.97465278466978,0.383217147432989,0.0166185868971715,0.5,0.0433659793370219,0.793095149431967,11.0914716565588,3.14333765761816,0.5,64.490920730899
CBC_1019,CBC_1019_MSI_TV_v3_Vset1_Tset3_2023-06-28_18h00.13.129.csv,4,37,1,0,z,0,1,3,tac,A,63,1,1A,0A,0,1,z,1.873662,0,1,1,1,0A,1A,A10,2.85263142991332,0.623022451247573,0.5,0.5,0.5,0.478317010331489,0.60016426566984,0.478317010331489,0.5,0.5,0.5,0.633401439464183,0.457574324744908,0.5,0.5,0.478317010331489,0.612980465271491,0.554772926004688,0.445227073995312,0.623022451247573,0.5,0.541106042224158,0.978575242267023,0.376977548752427,0.0163480005897189,0.5,0.0433659793370219,0.793095149431967,11.0914716565588,3.14333765761816,0.5,64.490920730899
CBC_1019,CBC_1019_MSI_TV_v3_Vset1_Tset3_2023-06-28_18h00.13.129.csv,4,38,3,1,b,1,0,2,tac,D,27,1,3D,1D,1,0,b,2.7315329,1,0,1,1,3D,1D,D31,3.27714473299218,0.639370451837292,0.5,0.5,0.5,0.478317010331489,0.60016426566984,0.478317010331489,0.5,0.5,0.5,0.633401439464183,0.457574324744908,0.5,0.5,0.478317010331489,0.612980465271491,0.550755816834544,0.449244183165456,0.612980465271491,0.5,0.207074533350903,0.971822495625744,0.387019534728509,0.0167834811460604,0.5,0.0433659793370219,0.793095149431967,11.0914716565588,3.14333765761816,0.5,64.490920730899
CBC_1019,CBC_1019_MSI_TV_v3_Vset1_Tset3_2023-06-28_18h00.13.129.csv,4,39,0,1,z,0,1,0,tac,B,63,1,0B,1B,0,1,z,1.2661621,0,1,1,1,1B,0B,B01,3.29583686600433,0.639370451837292,0.5,0.5,0.5,0.478317010331489,0.60016426566984,0.478317010331489,0.5,0.5,0.5,0.633401439464183,0.457574324744908,0.5,0.5,0.478317010331489,0.629763946417551,0.556490204350196,0.443509795649804,0.60016426566984,0.478317010331489,0.699117096442924,0.980831538425754,0.39983573433016,0.0173392681931647,0.5,0.0433659793370219,0.793095149431967,11.0914716565588,3.14333765761816,0.5,64.490920730899
CBC_1019,CBC_1019_MSI_TV_v3_Vset1_Tset3_2023-06-28_18h00.13.129.csv,4,40,2,3,b,1,0,1,tac,C,63,0,2C,3C,0,1,b,2.5286731,1,0,1,0,2C,3C,C23,2.90872089656436,0.639370451837292,0.5,0.5,0.5,0.478317010331489,0.617503533863004,0.478317010331489,0.5,0.5,0.5,0.633401439464183,0.457574324744908,0.5,0.5,0.478317010331489,0.629763946417551,0.580582502603411,0.419417497396589,0.633401439464183,0.457574324744908,0.138485042490804,0.996369273872797,-0.633401439464183,-0.0274680737358437,0.5,0.0433659793370219,0.793095149431967,11.0914716565588,3.14333765761816,0.5,64.490920730899
CBC_1019,CBC_1019_MSI_TV_v3_Vset1_Tset3_2023-06-28_18h00.13.129.csv,4,41,2,0,z,0,1,3,tac,A,27,1,2A,0A,0,1,z,1.836847,0,1,1,1,0A,2A,A20,3.3322045101752,0.639370451837292,0.5,0.5,0.5,0.478317010331489,0.617503533863004,0.478317010331489,0.5,0.5,0.5,0.605933365728339,0.457574324744908,0.5,0.5,0.478317010331489,0.629763946417551,0.561161166507588,0.438838833492412,0.639370451837292,0.5,0.581076707584475,0.986134925289641,0.360629548162708,0.0156390535339435,0.5,0.0433659793370219,0.793095149431967,11.0914716565588,3.14333765761816,0.5,64.490920730899
CBC_1019,CBC_1019_MSI_TV_v3_Vset1_Tset3_2023-06-28_18h00.13.129.csv,4,42,3,2,b,1,0,2,tac,D,63,1,3D,2D,1,0,b,2.5341692,1,0,1,1,3D,2D,D32,4.04305126783455,0.655009505371236,0.5,0.5,0.5,0.478317010331489,0.617503533863004,0.478317010331489,0.5,0.5,0.5,0.605933365728339,0.457574324744908,0.5,0.5,0.478317010331489,0.629763946417551,0.568337487059784,0.431662512940216,0.629763946417551,0.478317010331489,0.194621085956162,0.991560554095227,0.370236053582449,0.016055649049477,0.5,0.0433659793370219,0.793095149431967,11.0914716565588,3.14333765761816,0.5,64.490920730899
CBC_1019,CBC_1019_MSI_TV_v3_Vset1_Tset3_2023-06-28_18h00.13.129.csv,4,43,3,1,z,0,1,0,tac,B,27,1,3B,1B,0,1,z,1.4314789,0,1,1,1,1B,3B,B31,3.36729582998647,0.655009505371236,0.5,0.5,0.5,0.478317010331489,0.617503533863004,0.478317010331489,0.5,0.5,0.5,0.605933365728339,0.457574324744908,0.5,0.5,0.478317010331489,0.645819595467028,0.552574121827077,0.447425878172923,0.617503533863004,0.5,0.719187328087435,0.975040323172997,0.382496466136996,0.0165873338469809,0.5,0.0433659793370219,0.793095149431967,11.0914716565588,3.14333765761816,0.5,64.490920730899
CBC_1019,CBC_1019_MSI_TV_v3_Vset1_Tset3_2023-06-28_18h00.13.129.csv,4,44,2,3,b,1,0,1,tac,C,63,1,2C,3C,1,0,b,2.9462026,1,0,1,1,2C,3C,C23,2.69124308278583,0.655009505371236,0.5,0.5,0.5,0.478317010331489,0.634090867709985,0.478317010331489,0.5,0.5,0.5,0.605933365728339,0.457574324744908,0.5,0.5,0.478317010331489,0.645819595467028,0.569749867496216,0.430250132503784,0.605933365728339,0.457574324744908,0.0938291472727036,0.992322999721719,0.394066634271661,0.0170890855192346,0.5,0.0433659793370219,0.793095149431967,11.0914716565588,3.14333765761816,0.5,64.490920730899
