ID,filename,session,trial,visStimLeft,visStimRight,correctKey,leftCorrect,rightCorrect,secondStim,mod2Type,mod2Stim,frequency,rewardAccurate,stimPairLeft,stimPairRight,pCorrectLeft,pCorrectRight,key,reactionTime,choiceLeft,choiceRight,choiceAccurate,reward,chosenPair,otherPair,triplet,surprise,0A belief,1A belief,2A belief,3A belief,0B belief,1B belief,2B belief,3B belief,0C belief,1C belief,2C belief,3C belief,0D belief,1D belief,2D belief,3D belief,beliefPairNorm,beliefOtherPairNorm,beliefPair,beliefOtherPair,lik,corrLik,rewardPE,update2,fitCBCsimpleRW_CBCdriftDiffusionLR_pwBelief_startBelief,fitCBCsimpleRW_CBCdriftDiffusionLR_pwBelief_alpha1,fitCBCsimpleRW_CBCdriftDiffusionLR_pwBelief_nonDecisionTime,fitCBCsimpleRW_CBCdriftDiffusionLR_pwBelief_weight,fitCBCsimpleRW_CBCdriftDiffusionLR_pwBelief_startingBoundary,fitCBCsimpleRW_CBCdriftDiffusionLR_pwBelief_startingPoint,fit_CBCsimpleRW_CBCdriftDiffusionLR_pwBelief_NLL
CBC_1019,CBC_1019_MSI_AV_v3_Vset2_Aset1_2023-06-28_16h08.36.821.csv,1,1,1,0,b,1,0,0,aud,B,63,1,1B,0B,1,0,b,2.33564939999997,1,0,1,1,1B,0B,B10,2.77258872223978,0.5,0.5,0.5,0.5,0.5,0.5,0.5,0.5,0.5,0.5,0.5,0.5,0.5,0.5,0.5,0.5,0.5,0.5,0.5,0.5,0.15047239491134,0.499563669268226,0.5,0.0322642498560222,0.5,0.0645284997120444,0.892252435758023,2.32019742023977,2.22625920040589,0.5,63.06713041481
CBC_1019,CBC_1019_MSI_AV_v3_Vset2_Aset1_2023-06-28_16h08.36.821.csv,1,2,0,1,b,1,0,3,aud,A,63,1,0A,1A,1,0,b,1.82308010000088,1,0,1,1,0A,1A,A01,2.83321334405622,0.5,0.5,0.5,0.5,0.5,0.532264249856022,0.5,0.5,0.5,0.5,0.5,0.5,0.5,0.5,0.5,0.5,0.5,0.5,0.5,0.5,0.250699224486683,0.500513479745512,0.5,0.0322642498560222,0.5,0.0645284997120444,0.892252435758023,2.32019742023977,2.22625920040589,0.5,63.06713041481
CBC_1019,CBC_1019_MSI_AV_v3_Vset2_Aset1_2023-06-28_16h08.36.821.csv,1,3,1,2,z,0,1,1,aud,C,9,1,1C,2C,0,1,z,1.29270270000052,0,1,1,1,2C,1C,C12,2.89037175789616,0.532264249856022,0.5,0.5,0.5,0.5,0.532264249856022,0.5,0.5,0.5,0.5,0.5,0.5,0.5,0.5,0.5,0.5,0.5,0.5,0.5,0.5,0.373421016218481,0.500529463806089,0.5,0.0322642498560222,0.5,0.0645284997120444,0.892252435758023,2.32019742023977,2.22625920040589,0.5,63.06713041481
CBC_1019,CBC_1019_MSI_AV_v3_Vset2_Aset1_2023-06-28_16h08.36.821.csv,1,4,1,0,z,0,1,3,aud,A,63,1,1A,0A,0,1,z,2.29409770000166,0,1,1,1,0A,1A,A10,2.94443897916644,0.532264249856022,0.5,0.5,0.5,0.5,0.532264249856022,0.5,0.5,0.5,0.5,0.532264249856022,0.5,0.5,0.5,0.5,0.5,0.532264249856022,0.467735750143978,0.532264249856022,0.5,0.182893517878252,0.583733425310559,0.467735750143978,0.0301822862184786,0.5,0.0645284997120444,0.892252435758023,2.32019742023977,2.22625920040589,0.5,63.06713041481
CBC_1019,CBC_1019_MSI_AV_v3_Vset2_Aset1_2023-06-28_16h08.36.821.csv,1,5,3,1,b,1,0,2,aud,D,27,1,3D,1D,1,0,b,1.74243840000054,1,0,1,1,3D,1D,D31,2.99573227355399,0.562446536074501,0.5,0.5,0.5,0.5,0.532264249856022,0.5,0.5,0.5,0.5,0.532264249856022,0.5,0.5,0.5,0.5,0.5,0.5,0.5,0.5,0.5,0.270376102036729,0.498963869650552,0.5,0.0322642498560222,0.5,0.0645284997120444,0.892252435758023,2.32019742023977,2.22625920040589,0.5,63.06713041481
CBC_1019,CBC_1019_MSI_AV_v3_Vset2_Aset1_2023-06-28_16h08.36.821.csv,1,6,0,1,z,0,1,0,aud,B,63,1,0B,1B,0,1,z,1.7200969000005,0,1,1,1,1B,0B,B01,3.04452243772342,0.562446536074501,0.5,0.5,0.5,0.5,0.532264249856022,0.5,0.5,0.5,0.5,0.532264249856022,0.5,0.5,0.5,0.5,0.532264249856022,0.532264249856022,0.467735750143978,0.532264249856022,0.5,0.323547071387151,0.581747679234371,0.467735750143978,0.0301822862184786,0.5,0.0645284997120444,0.892252435758023,2.32019742023977,2.22625920040589,0.5,63.06713041481
CBC_1019,CBC_1019_MSI_AV_v3_Vset2_Aset1_2023-06-28_16h08.36.821.csv,1,7,2,3,b,1,0,1,aud,C,63,1,2C,3C,1,0,z,2.26871410000058,0,1,0,0,3C,2C,C23,3.09104245335832,0.562446536074501,0.5,0.5,0.5,0.5,0.562446536074501,0.5,0.5,0.5,0.5,0.532264249856022,0.5,0.5,0.5,0.5,0.532264249856022,0.467735750143978,0.532264249856022,0.5,0.532264249856022,0.134056239636231,0.417051593135492,-0.5,-0.0322642498560222,0.5,0.0645284997120444,0.892252435758023,2.32019742023977,2.22625920040589,0.5,63.06713041481
CBC_1019,CBC_1019_MSI_AV_v3_Vset2_Aset1_2023-06-28_16h08.36.821.csv,1,8,2,0,z,0,1,3,aud,A,27,1,2A,0A,0,1,b,1.8902577000008,1,0,0,0,2A,0A,A20,3.13549421592915,0.562446536074501,0.5,0.5,0.5,0.5,0.562446536074501,0.5,0.5,0.5,0.5,0.532264249856022,0.467735750143978,0.5,0.5,0.5,0.532264249856022,0.437553463925499,0.562446536074501,0.5,0.562446536074501,0.162304324930339,0.342961306339995,-0.5,-0.0322642498560222,0.5,0.0645284997120444,0.892252435758023,2.32019742023977,2.22625920040589,0.5,63.06713041481
CBC_1019,CBC_1019_MSI_AV_v3_Vset2_Aset1_2023-06-28_16h08.36.821.csv,1,9,3,2,b,1,0,2,aud,D,63,1,3D,2D,1,0,b,1.84180440000091,1,0,1,1,3D,2D,D32,3.17805383034795,0.562446536074501,0.5,0.467735750143978,0.5,0.5,0.562446536074501,0.5,0.5,0.5,0.5,0.532264249856022,0.467735750143978,0.5,0.5,0.5,0.532264249856022,0.532264249856022,0.467735750143978,0.532264249856022,0.5,0.287668925327051,0.583101448367262,0.467735750143978,0.0301822862184786,0.5,0.0645284997120444,0.892252435758023,2.32019742023977,2.22625920040589,0.5,63.06713041481
CBC_1019,CBC_1019_MSI_AV_v3_Vset2_Aset1_2023-06-28_16h08.36.821.csv,1,10,3,1,z,0,1,0,aud,B,27,1,3B,1B,0,1,z,1.40432519999922,0,1,1,1,1B,3B,B31,3.2188758248682,0.562446536074501,0.5,0.467735750143978,0.5,0.5,0.562446536074501,0.5,0.5,0.5,0.5,0.532264249856022,0.467735750143978,0.5,0.5,0.5,0.562446536074501,0.562446536074501,0.437553463925499,0.562446536074501,0.5,0.489322231512665,0.656987175397402,0.437553463925499,0.0282346685709206,0.5,0.0645284997120444,0.892252435758023,2.32019742023977,2.22625920040589,0.5,63.06713041481
CBC_1019,CBC_1019_MSI_AV_v3_Vset2_Aset1_2023-06-28_16h08.36.821.csv,1,11,3,2,z,0,1,1,aud,C,63,1,3C,2C,0,1,b,1.7543998000001,1,0,0,0,3C,2C,C32,3.25809653802148,0.562446536074501,0.5,0.467735750143978,0.5,0.5,0.590681204645421,0.5,0.5,0.5,0.5,0.532264249856022,0.467735750143978,0.5,0.5,0.5,0.562446536074501,0.435739078093405,0.564260921906595,0.467735750143978,0.532264249856022,0.185119008228331,0.340226397734313,-0.467735750143978,-0.0301822862184786,0.5,0.0645284997120444,0.892252435758023,2.32019742023977,2.22625920040589,0.5,63.06713041481
CBC_1019,CBC_1019_MSI_AV_v3_Vset2_Aset1_2023-06-28_16h08.36.821.csv,1,12,1,3,b,1,0,0,aud,B,27,1,1B,3B,1,0,b,1.27241620000132,1,0,1,1,1B,3B,B13,3.29583686600433,0.562446536074501,0.5,0.467735750143978,0.5,0.5,0.590681204645421,0.5,0.5,0.5,0.5,0.532264249856022,0.437553463925499,0.5,0.5,0.5,0.562446536074501,0.590681204645421,0.409318795354579,0.590681204645421,0.5,0.573555073183465,0.718468226922037,0.409318795354579,0.0264127277681723,0.5,0.0645284997120444,0.892252435758023,2.32019742023977,2.22625920040589,0.5,63.06713041481
CBC_1019,CBC_1019_MSI_AV_v3_Vset2_Aset1_2023-06-28_16h08.36.821.csv,1,13,3,2,z,0,1,1,aud,C,63,1,3C,2C,0,1,b,1.64404560000003,1,0,0,0,3C,2C,C32,2.63905732961526,0.562446536074501,0.5,0.467735750143978,0.5,0.5,0.617093932413594,0.5,0.5,0.5,0.5,0.532264249856022,0.437553463925499,0.5,0.5,0.5,0.562446536074501,0.406046401394693,0.593953598605307,0.437553463925499,0.532264249856022,0.170359773806344,0.274427565973548,-0.437553463925499,-0.0282346685709206,0.5,0.0645284997120444,0.892252435758023,2.32019742023977,2.22625920040589,0.5,63.06713041481
CBC_1019,CBC_1019_MSI_AV_v3_Vset2_Aset1_2023-06-28_16h08.36.821.csv,1,14,3,2,b,1,0,2,aud,D,63,1,3D,2D,1,0,b,1.30003730000135,1,0,1,1,3D,2D,D32,2.67414864942653,0.562446536074501,0.5,0.467735750143978,0.5,0.5,0.617093932413594,0.5,0.5,0.5,0.5,0.532264249856022,0.409318795354579,0.5,0.5,0.5,0.562446536074501,0.562446536074501,0.437553463925499,0.562446536074501,0.5,0.50652194764376,0.655850777598876,0.437553463925499,0.0282346685709206,0.5,0.0645284997120444,0.892252435758023,2.32019742023977,2.22625920040589,0.5,63.06713041481
CBC_1019,CBC_1019_MSI_AV_v3_Vset2_Aset1_2023-06-28_16h08.36.821.csv,1,15,0,3,b,1,0,3,aud,A,9,1,0A,3A,1,0,b,1.01821670000027,1,0,1,1,0A,3A,A03,3.40119738166216,0.562446536074501,0.5,0.467735750143978,0.5,0.5,0.617093932413594,0.5,0.5,0.5,0.5,0.532264249856022,0.409318795354579,0.5,0.5,0.5,0.590681204645421,0.562446536074501,0.437553463925499,0.562446536074501,0.5,0.0998396876412542,0.656356166037595,0.437553463925499,0.0282346685709206,0.5,0.0645284997120444,0.892252435758023,2.32019742023977,2.22625920040589,0.5,63.06713041481
CBC_1019,CBC_1019_MSI_AV_v3_Vset2_Aset1_2023-06-28_16h08.36.821.csv,1,16,0,1,z,0,1,0,aud,B,63,0,0B,1B,1,0,z,1.20072680000158,0,1,1,0,1B,0B,B01,2.7408400239252,0.590681204645421,0.5,0.467735750143978,0.5,0.5,0.617093932413594,0.5,0.5,0.5,0.5,0.532264249856022,0.409318795354579,0.5,0.5,0.5,0.590681204645421,0.617093932413594,0.382906067586406,0.617093932413594,0.5,0.607653732044808,0.769617187018219,-0.617093932413594,-0.0398201456400549,0.5,0.0645284997120444,0.892252435758023,2.32019742023977,2.22625920040589,0.5,63.06713041481
CBC_1019,CBC_1019_MSI_AV_v3_Vset2_Aset1_2023-06-28_16h08.36.821.csv,1,17,2,3,z,0,1,2,aud,D,63,1,2D,3D,0,1,b,1.70221719999972,1,0,0,0,2D,3D,D23,3.46573590279973,0.590681204645421,0.5,0.467735750143978,0.5,0.5,0.577273786773539,0.5,0.5,0.5,0.5,0.532264249856022,0.409318795354579,0.5,0.5,0.5,0.590681204645421,0.409318795354579,0.590681204645421,0.5,0.590681204645421,0.164352322899946,0.282009060434757,-0.5,-0.0322642498560222,0.5,0.0645284997120444,0.892252435758023,2.32019742023977,2.22625920040589,0.5,63.06713041481
CBC_1019,CBC_1019_MSI_AV_v3_Vset2_Aset1_2023-06-28_16h08.36.821.csv,1,18,0,2,z,0,1,1,aud,C,27,1,0C,2C,0,1,z,1.3793551000017,0,1,1,1,2C,0C,C02,3.49650756146648,0.590681204645421,0.5,0.467735750143978,0.5,0.5,0.577273786773539,0.5,0.5,0.5,0.5,0.532264249856022,0.409318795354579,0.5,0.5,0.467735750143978,0.590681204645421,0.532264249856022,0.467735750143978,0.532264249856022,0.5,0.429746823964855,0.582078921126514,0.467735750143978,0.0301822862184786,0.5,0.0645284997120444,0.892252435758023,2.32019742023977,2.22625920040589,0.5,63.06713041481
CBC_1019,CBC_1019_MSI_AV_v3_Vset2_Aset1_2023-06-28_16h08.36.821.csv,1,19,0,1,b,1,0,3,aud,A,63,1,0A,1A,1,0,b,2.16458899999998,1,0,1,1,0A,1A,A01,2.83321334405622,0.590681204645421,0.5,0.467735750143978,0.5,0.5,0.577273786773539,0.5,0.5,0.5,0.5,0.562446536074501,0.409318795354579,0.5,0.5,0.467735750143978,0.590681204645421,0.590681204645421,0.409318795354579,0.590681204645421,0.5,0.254908841519968,0.718660687066544,0.409318795354579,0.0264127277681723,0.5,0.0645284997120444,0.892252435758023,2.32019742023977,2.22625920040589,0.5,63.06713041481
CBC_1019,CBC_1019_MSI_AV_v3_Vset2_Aset1_2023-06-28_16h08.36.821.csv,1,20,1,0,b,1,0,0,aud,B,63,1,1B,0B,1,0,b,2.21095310000055,1,0,1,1,1B,0B,B10,2.86220088092947,0.617093932413594,0.5,0.467735750143978,0.5,0.5,0.577273786773539,0.5,0.5,0.5,0.5,0.562446536074501,0.409318795354579,0.5,0.5,0.467735750143978,0.590681204645421,0.577273786773539,0.422726213226461,0.577273786773539,0.5,0.233565627802813,0.68986062985748,0.422726213226461,0.0272778883284574,0.5,0.0645284997120444,0.892252435758023,2.32019742023977,2.22625920040589,0.5,63.06713041481
CBC_1019,CBC_1019_MSI_AV_v3_Vset2_Aset1_2023-06-28_16h08.36.821.csv,1,21,1,3,z,0,1,2,aud,D,27,1,1D,3D,0,1,b,3.91199170000073,1,0,0,0,1D,3D,D13,3.58351893845611,0.617093932413594,0.5,0.467735750143978,0.5,0.5,0.604551675101996,0.5,0.5,0.5,0.5,0.562446536074501,0.409318795354579,0.5,0.5,0.467735750143978,0.590681204645421,0.409318795354579,0.590681204645421,0.5,0.590681204645421,0.0150534372542437,0.281963439777688,-0.5,-0.0322642498560222,0.5,0.0645284997120444,0.892252435758023,2.32019742023977,2.22625920040589,0.5,63.06713041481
CBC_1019,CBC_1019_MSI_AV_v3_Vset2_Aset1_2023-06-28_16h08.36.821.csv,1,22,3,2,z,0,1,1,aud,C,63,1,3C,2C,0,1,z,2.28224399999999,0,1,1,1,2C,3C,C32,2.51230562397611,0.617093932413594,0.5,0.467735750143978,0.5,0.5,0.604551675101996,0.5,0.5,0.5,0.5,0.562446536074501,0.409318795354579,0.5,0.467735750143978,0.467735750143978,0.590681204645421,0.649736082422511,0.350263917577489,0.562446536074501,0.409318795354579,0.246160506547721,0.825062956447523,0.437553463925499,0.0282346685709206,0.5,0.0645284997120444,0.892252435758023,2.32019742023977,2.22625920040589,0.5,63.06713041481
CBC_1019,CBC_1019_MSI_AV_v3_Vset2_Aset1_2023-06-28_16h08.36.821.csv,1,23,0,1,b,1,0,3,aud,A,63,1,0A,1A,1,0,b,2.19420220000029,1,0,1,1,0A,1A,A01,2.53897387105828,0.617093932413594,0.5,0.467735750143978,0.5,0.5,0.604551675101996,0.5,0.5,0.5,0.5,0.590681204645421,0.409318795354579,0.5,0.467735750143978,0.467735750143978,0.590681204645421,0.617093932413594,0.382906067586406,0.617093932413594,0.5,0.26195709058179,0.770355034311129,0.382906067586406,0.0247083540719895,0.5,0.0645284997120444,0.892252435758023,2.32019742023977,2.22625920040589,0.5,63.06713041481
CBC_1019,CBC_1019_MSI_AV_v3_Vset2_Aset1_2023-06-28_16h08.36.821.csv,1,24,2,3,z,0,1,2,aud,D,63,1,2D,3D,0,1,b,3.39748259999942,1,0,0,0,2D,3D,D23,2.9704144655697,0.641802286485583,0.5,0.467735750143978,0.5,0.5,0.604551675101996,0.5,0.5,0.5,0.5,0.590681204645421,0.409318795354579,0.5,0.467735750143978,0.467735750143978,0.590681204645421,0.37847673760672,0.62152326239328,0.467735750143978,0.590681204645421,0.0187245883045303,0.221525873493391,-0.467735750143978,-0.0301822862184786,0.5,0.0645284997120444,0.892252435758023,2.32019742023977,2.22625920040589,0.5,63.06713041481
CBC_1019,CBC_1019_MSI_AV_v3_Vset2_Aset1_2023-06-28_16h08.36.821.csv,1,25,2,0,b,1,0,1,aud,C,27,1,2C,0C,1,0,b,1.55273440000019,1,0,1,1,2C,0C,C20,3.68887945411394,0.641802286485583,0.5,0.467735750143978,0.5,0.5,0.604551675101996,0.5,0.5,0.5,0.5,0.590681204645421,0.409318795354579,0.5,0.467735750143978,0.437553463925499,0.590681204645421,0.590681204645421,0.409318795354579,0.590681204645421,0.5,0.487661380822155,0.719086414418594,0.409318795354579,0.0264127277681723,0.5,0.0645284997120444,0.892252435758023,2.32019742023977,2.22625920040589,0.5,63.06713041481
CBC_1019,CBC_1019_MSI_AV_v3_Vset2_Aset1_2023-06-28_16h08.36.821.csv,1,26,0,1,b,1,0,3,aud,A,63,1,0A,1A,1,0,b,3.03605740000057,1,0,1,1,0A,1A,A01,2.32727770558442,0.641802286485583,0.5,0.467735750143978,0.5,0.5,0.604551675101996,0.5,0.5,0.5,0.5,0.617093932413594,0.409318795354579,0.5,0.467735750143978,0.437553463925499,0.590681204645421,0.641802286485583,0.358197713514417,0.641802286485583,0.5,0.0981130240805144,0.811734506589016,0.358197713514417,0.02311396105337,0.5,0.0645284997120444,0.892252435758023,2.32019742023977,2.22625920040589,0.5,63.06713041481
CBC_1019,CBC_1019_MSI_AV_v3_Vset2_Aset1_2023-06-28_16h08.36.821.csv,1,27,1,3,b,1,0,0,aud,B,27,1,1B,3B,1,0,b,1.71545060000062,1,0,1,1,1B,3B,B13,3.04452243772342,0.664916247538953,0.5,0.467735750143978,0.5,0.5,0.604551675101996,0.5,0.5,0.5,0.5,0.617093932413594,0.409318795354579,0.5,0.467735750143978,0.437553463925499,0.590681204645421,0.604551675101996,0.395448324898004,0.604551675101996,0.5,0.432893721234188,0.74615544358996,0.395448324898004,0.0255176871193093,0.5,0.0645284997120444,0.892252435758023,2.32019742023977,2.22625920040589,0.5,63.06713041481
CBC_1019,CBC_1019_MSI_AV_v3_Vset2_Aset1_2023-06-28_16h08.36.821.csv,1,28,3,2,z,0,1,1,aud,C,63,1,3C,2C,0,1,z,1.62914259999889,0,1,1,1,2C,3C,C32,2.37490575457367,0.664916247538953,0.5,0.467735750143978,0.5,0.5,0.630069362221305,0.5,0.5,0.5,0.5,0.617093932413594,0.409318795354579,0.5,0.467735750143978,0.437553463925499,0.590681204645421,0.699309873631904,0.300690126368096,0.617093932413594,0.409318795354579,0.616602586582329,0.8869879254136,0.382906067586406,0.0247083540719895,0.5,0.0645284997120444,0.892252435758023,2.32019742023977,2.22625920040589,0.5,63.06713041481
CBC_1019,CBC_1019_MSI_AV_v3_Vset2_Aset1_2023-06-28_16h08.36.821.csv,1,29,3,2,b,1,0,2,aud,D,63,1,3D,2D,1,0,b,3.26159550000011,1,0,1,1,3D,2D,D32,2.68557734525015,0.664916247538953,0.5,0.467735750143978,0.5,0.5,0.630069362221305,0.5,0.5,0.5,0.5,0.641802286485583,0.409318795354579,0.5,0.467735750143978,0.437553463925499,0.590681204645421,0.649736082422511,0.350263917577489,0.590681204645421,0.437553463925499,0.0732704077150836,0.824505733958965,0.409318795354579,0.0264127277681723,0.5,0.0645284997120444,0.892252435758023,2.32019742023977,2.22625920040589,0.5,63.06713041481
CBC_1019,CBC_1019_MSI_AV_v3_Vset2_Aset1_2023-06-28_16h08.36.821.csv,1,30,0,1,z,0,1,0,aud,B,63,1,0B,1B,0,1,z,2.85401860000093,0,1,1,1,1B,0B,B01,2.70805020110221,0.664916247538953,0.5,0.467735750143978,0.5,0.5,0.630069362221305,0.5,0.5,0.5,0.5,0.641802286485583,0.409318795354579,0.5,0.467735750143978,0.437553463925499,0.617093932413594,0.630069362221305,0.369930637778695,0.630069362221305,0.5,0.123111259685723,0.793022242956559,0.369930637778695,0.0238710690533789,0.5,0.0645284997120444,0.892252435758023,2.32019742023977,2.22625920040589,0.5,63.06713041481
CBC_1019,CBC_1019_MSI_AV_v3_Vset2_Aset1_2023-06-28_16h08.36.821.csv,1,31,2,0,z,0,1,3,aud,A,27,1,2A,0A,0,1,z,3.63621179999973,0,1,1,1,0A,2A,A20,3.13549421592915,0.664916247538953,0.5,0.467735750143978,0.5,0.5,0.653940431274684,0.5,0.5,0.5,0.5,0.641802286485583,0.409318795354579,0.5,0.467735750143978,0.437553463925499,0.617093932413594,0.693071246963106,0.306928753036894,0.664916247538953,0.467735750143978,0.0372157784153463,0.880055158597508,0.335083752461047,0.0216224518241934,0.5,0.0645284997120444,0.892252435758023,2.32019742023977,2.22625920040589,0.5,63.06713041481
CBC_1019,CBC_1019_MSI_AV_v3_Vset2_Aset1_2023-06-28_16h08.36.821.csv,1,32,3,0,b,1,0,2,aud,D,9,1,3D,0D,1,0,b,1.32957109999916,1,0,1,1,3D,0D,D30,3.85014760171006,0.686538699363146,0.5,0.467735750143978,0.5,0.5,0.653940431274684,0.5,0.5,0.5,0.5,0.641802286485583,0.409318795354579,0.5,0.467735750143978,0.437553463925499,0.617093932413594,0.617093932413594,0.382906067586406,0.617093932413594,0.5,0.639524679895044,0.770467805041813,0.382906067586406,0.0247083540719895,0.5,0.0645284997120444,0.892252435758023,2.32019742023977,2.22625920040589,0.5,63.06713041481
CBC_1019,CBC_1019_MSI_AV_v3_Vset2_Aset1_2023-06-28_16h08.36.821.csv,1,33,3,2,z,0,1,1,aud,C,63,1,3C,2C,0,1,z,2.26220810000086,0,1,1,1,2C,3C,C32,2.26176309847379,0.686538699363146,0.5,0.467735750143978,0.5,0.5,0.653940431274684,0.5,0.5,0.5,0.5,0.641802286485583,0.409318795354579,0.5,0.467735750143978,0.437553463925499,0.641802286485583,0.721110620246135,0.278889379753865,0.641802286485583,0.409318795354579,0.246877184444976,0.907473632932294,0.358197713514417,0.02311396105337,0.5,0.0645284997120444,0.892252435758023,2.32019742023977,2.22625920040589,0.5,63.06713041481
CBC_1019,CBC_1019_MSI_AV_v3_Vset2_Aset1_2023-06-28_16h08.36.821.csv,1,34,0,1,z,0,1,0,aud,B,63,1,0B,1B,0,1,z,1.16145420000066,0,1,1,1,1B,0B,B01,2.50552593699074,0.686538699363146,0.5,0.467735750143978,0.5,0.5,0.653940431274684,0.5,0.5,0.5,0.5,0.664916247538953,0.409318795354579,0.5,0.467735750143978,0.437553463925499,0.641802286485583,0.653940431274684,0.346059568725316,0.653940431274684,0.5,0.658432561573834,0.830766178889406,0.346059568725316,0.0223307047808418,0.5,0.0645284997120444,0.892252435758023,2.32019742023977,2.22625920040589,0.5,63.06713041481
CBC_1019,CBC_1019_MSI_AV_v3_Vset2_Aset1_2023-06-28_16h08.36.821.csv,1,35,0,1,b,1,0,3,aud,A,63,0,0A,1A,0,1,b,2.13040080000064,1,0,1,0,0A,1A,A01,2.30258509299405,0.686538699363146,0.5,0.467735750143978,0.5,0.5,0.676271136055526,0.5,0.5,0.5,0.5,0.664916247538953,0.409318795354579,0.5,0.467735750143978,0.437553463925499,0.641802286485583,0.686538699363146,0.313461300636854,0.686538699363146,0.5,0.304451130471883,0.872612167321094,-0.686538699363146,-0.0443013122641622,0.5,0.0645284997120444,0.892252435758023,2.32019742023977,2.22625920040589,0.5,63.06713041481
CBC_1019,CBC_1019_MSI_AV_v3_Vset2_Aset1_2023-06-28_16h08.36.821.csv,1,36,2,3,z,0,1,2,aud,D,63,1,2D,3D,0,1,z,1.07953320000161,0,1,1,1,3D,2D,D23,2.83321334405622,0.642237387098984,0.5,0.467735750143978,0.5,0.5,0.676271136055526,0.5,0.5,0.5,0.5,0.664916247538953,0.409318795354579,0.5,0.467735750143978,0.437553463925499,0.641802286485583,0.697261762334119,0.302738237665881,0.641802286485583,0.437553463925499,0.513644392549839,0.884805052114987,0.358197713514417,0.02311396105337,0.5,0.0645284997120444,0.892252435758023,2.32019742023977,2.22625920040589,0.5,63.06713041481
CBC_1019,CBC_1019_MSI_AV_v3_Vset2_Aset1_2023-06-28_16h08.36.821.csv,1,37,1,2,b,1,0,0,aud,B,9,1,1B,2B,1,0,b,1.31924910000089,1,0,1,1,1B,2B,B12,3.95124371858143,0.642237387098984,0.5,0.467735750143978,0.5,0.5,0.676271136055526,0.5,0.5,0.5,0.5,0.664916247538953,0.409318795354579,0.5,0.467735750143978,0.437553463925499,0.664916247538953,0.676271136055526,0.323728863944474,0.676271136055526,0.5,0.803210201152502,0.860485240726896,0.323728863944474,0.0208897379038215,0.5,0.0645284997120444,0.892252435758023,2.32019742023977,2.22625920040589,0.5,63.06713041481
CBC_1019,CBC_1019_MSI_AV_v3_Vset2_Aset1_2023-06-28_16h08.36.821.csv,1,38,2,0,z,0,1,3,aud,A,27,1,2A,0A,0,1,z,3.46773170000051,0,1,1,1,0A,2A,A20,2.87167962488401,0.642237387098984,0.5,0.467735750143978,0.5,0.5,0.697160873959347,0.5,0.5,0.5,0.5,0.664916247538953,0.409318795354579,0.5,0.467735750143978,0.437553463925499,0.664916247538953,0.671356099241421,0.328643900758579,0.642237387098984,0.467735750143978,0.052319701962712,0.854790015691244,0.357762612901016,0.0230858846635635,0.5,0.0645284997120444,0.892252435758023,2.32019742023977,2.22625920040589,0.5,63.06713041481
CBC_1019,CBC_1019_MSI_AV_v3_Vset2_Aset1_2023-06-28_16h08.36.821.csv,1,39,2,3,b,1,0,1,aud,C,63,1,2C,3C,1,0,b,1.51156579999952,1,0,1,1,2C,3C,C23,3.29583686600433,0.665323271762548,0.5,0.467735750143978,0.5,0.5,0.697160873959347,0.5,0.5,0.5,0.5,0.664916247538953,0.409318795354579,0.5,0.467735750143978,0.437553463925499,0.664916247538953,0.741170803787042,0.258829196212958,0.664916247538953,0.409318795354579,0.789352699069435,0.92352335614112,0.335083752461047,0.0216224518241934,0.5,0.0645284997120444,0.892252435758023,2.32019742023977,2.22625920040589,0.5,63.06713041481
CBC_1019,CBC_1019_MSI_AV_v3_Vset2_Aset1_2023-06-28_16h08.36.821.csv,1,40,1,3,z,0,1,2,aud,D,27,1,1D,3D,0,1,z,1.56012740000006,0,1,1,1,3D,1D,D13,3.31418600467253,0.665323271762548,0.5,0.467735750143978,0.5,0.5,0.697160873959347,0.5,0.5,0.5,0.5,0.686538699363146,0.409318795354579,0.5,0.467735750143978,0.437553463925499,0.664916247538953,0.693071246963106,0.306928753036894,0.664916247538953,0.467735750143978,0.665787628925754,0.880074928763049,0.335083752461047,0.0216224518241934,0.5,0.0645284997120444,0.892252435758023,2.32019742023977,2.22625920040589,0.5,63.06713041481
CBC_1019,CBC_1019_MSI_AV_v3_Vset2_Aset1_2023-06-28_16h08.36.821.csv,1,41,0,1,b,1,0,3,aud,A,63,1,0A,1A,1,0,b,1.51582469999994,1,0,1,1,0A,1A,A01,2.23359222150709,0.665323271762548,0.5,0.467735750143978,0.5,0.5,0.697160873959347,0.5,0.5,0.5,0.5,0.686538699363146,0.409318795354579,0.5,0.467735750143978,0.437553463925499,0.686538699363146,0.665323271762548,0.334676728237452,0.665323271762548,0.5,0.652317605211751,0.846667119303325,0.334676728237452,0.0215961871616984,0.5,0.0645284997120444,0.892252435758023,2.32019742023977,2.22625920040589,0.5,63.06713041481
CBC_1019,CBC_1019_MSI_AV_v3_Vset2_Aset1_2023-06-28_16h08.36.821.csv,1,42,0,2,z,0,1,1,aud,C,27,1,0C,2C,0,1,b,2.40622590000021,1,0,0,0,0C,2C,C02,3.3499040872746,0.686919458924246,0.5,0.467735750143978,0.5,0.5,0.697160873959347,0.5,0.5,0.5,0.5,0.686538699363146,0.409318795354579,0.5,0.467735750143978,0.437553463925499,0.686538699363146,0.313461300636854,0.686538699363146,0.5,0.686538699363146,0.0304079166796382,0.127181030276443,-0.5,-0.0322642498560222,0.5,0.0645284997120444,0.892252435758023,2.32019742023977,2.22625920040589,0.5,63.06713041481
CBC_1019,CBC_1019_MSI_AV_v3_Vset2_Aset1_2023-06-28_16h08.36.821.csv,1,43,3,2,b,1,0,2,aud,D,63,1,3D,2D,1,0,b,1.23239319999993,1,0,1,1,3D,2D,D32,2.67414864942653,0.686919458924246,0.5,0.467735750143978,0.5,0.5,0.697160873959347,0.5,0.5,0.467735750143978,0.5,0.686538699363146,0.409318795354579,0.5,0.467735750143978,0.437553463925499,0.686538699363146,0.737900321697131,0.262099678302869,0.686538699363146,0.437553463925499,1.0056129752224,0.921029861162629,0.313461300636854,0.0202271874478823,0.5,0.0645284997120444,0.892252435758023,2.32019742023977,2.22625920040589,0.5,63.06713041481
CBC_1019,CBC_1019_MSI_AV_v3_Vset2_Aset1_2023-06-28_16h08.36.821.csv,1,44,1,0,b,1,0,0,aud,B,63,1,1B,0B,1,0,b,1.85909689999971,1,0,1,1,1B,0B,B10,2.97892515523761,0.686919458924246,0.5,0.467735750143978,0.5,0.5,0.697160873959347,0.5,0.5,0.467735750143978,0.5,0.686538699363146,0.409318795354579,0.5,0.467735750143978,0.437553463925499,0.706765886811029,0.697160873959347,0.302839126040653,0.697160873959347,0.5,0.44636019059133,0.884162060697567,0.302839126040653,0.01954175445751,0.5,0.0645284997120444,0.892252435758023,2.32019742023977,2.22625920040589,0.5,63.06713041481
CBC_1019,CBC_1019_MSI_TV_v3_Vset5_Tset2_2023-06-28_16h17.24.850.csv,2,1,0,1,b,1,0,3,tac,A,63,1,0A,1A,1,0,z,1.9776379,0,1,0,0,1A,0A,A01,2.77258872223978,0.5,0.5,0.5,0.5,0.5,0.5,0.5,0.5,0.5,0.5,0.5,0.5,0.5,0.5,0.5,0.5,0.5,0.5,0.5,0.5,0.226921134002942,0.500811075840864,-0.5,-0.0153387227716897,0.5,0.0306774455433794,0.978916403829804,6.83670667573478,2.51437636539219,0.5,66.3678067457415
CBC_1019,CBC_1019_MSI_TV_v3_Vset5_Tset2_2023-06-28_16h17.24.850.csv,2,2,2,3,z,0,1,2,tac,D,63,1,2D,3D,0,1,z,2.3704644,0,1,1,1,3D,2D,D23,2.83321334405622,0.5,0.48466127722831,0.5,0.5,0.5,0.5,0.5,0.5,0.5,0.5,0.5,0.5,0.5,0.5,0.5,0.5,0.5,0.5,0.5,0.5,0.167453915155964,0.499486075378138,0.5,0.0153387227716897,0.5,0.0306774455433794,0.978916403829804,6.83670667573478,2.51437636539219,0.5,66.3678067457415
CBC_1019,CBC_1019_MSI_TV_v3_Vset5_Tset2_2023-06-28_16h17.24.850.csv,2,3,0,2,z,0,1,1,tac,C,27,1,0C,2C,0,1,b,2.7995421,1,0,0,0,0C,2C,C02,2.89037175789616,0.5,0.48466127722831,0.5,0.5,0.5,0.5,0.5,0.5,0.5,0.5,0.5,0.5,0.5,0.5,0.5,0.51533872277169,0.5,0.5,0.5,0.5,0.120026976860394,0.500216382900386,-0.5,-0.0153387227716897,0.5,0.0306774455433794,0.978916403829804,6.83670667573478,2.51437636539219,0.5,66.3678067457415
CBC_1019,CBC_1019_MSI_TV_v3_Vset5_Tset2_2023-06-28_16h17.24.850.csv,2,4,0,1,b,1,0,3,tac,A,63,1,0A,1A,1,0,z,2.4092744,0,1,0,0,1A,0A,A01,2.2512917986065,0.5,0.48466127722831,0.5,0.5,0.5,0.5,0.5,0.5,0.48466127722831,0.5,0.5,0.5,0.5,0.5,0.5,0.51533872277169,0.48466127722831,0.51533872277169,0.48466127722831,0.5,0.121233502301379,0.37162596759625,-0.48466127722831,-0.0148681699391562,0.5,0.0306774455433794,0.978916403829804,6.83670667573478,2.51437636539219,0.5,66.3678067457415
CBC_1019,CBC_1019_MSI_TV_v3_Vset5_Tset2_2023-06-28_16h17.24.850.csv,2,5,1,3,b,1,0,0,tac,B,27,1,1B,3B,1,0,b,1.8230413,1,0,1,1,1B,3B,B13,2.99573227355399,0.5,0.469793107289154,0.5,0.5,0.5,0.5,0.5,0.5,0.48466127722831,0.5,0.5,0.5,0.5,0.5,0.5,0.51533872277169,0.5,0.5,0.5,0.5,0.253130709338824,0.499948640906776,0.5,0.0153387227716897,0.5,0.0306774455433794,0.978916403829804,6.83670667573478,2.51437636539219,0.5,66.3678067457415
CBC_1019,CBC_1019_MSI_TV_v3_Vset5_Tset2_2023-06-28_16h17.24.850.csv,2,6,3,2,z,0,1,1,tac,C,63,1,3C,2C,0,1,z,2.070941,0,1,1,1,2C,3C,C32,3.04452243772342,0.5,0.469793107289154,0.5,0.5,0.5,0.51533872277169,0.5,0.5,0.48466127722831,0.5,0.5,0.5,0.5,0.5,0.5,0.51533872277169,0.5,0.5,0.5,0.5,0.210876146216273,0.499257913500445,0.5,0.0153387227716897,0.5,0.0306774455433794,0.978916403829804,6.83670667573478,2.51437636539219,0.5,66.3678067457415
CBC_1019,CBC_1019_MSI_TV_v3_Vset5_Tset2_2023-06-28_16h17.24.850.csv,2,7,3,2,b,1,0,2,tac,D,63,0,3D,2D,0,1,b,2.282703,1,0,1,0,3D,2D,D32,3.09104245335832,0.5,0.469793107289154,0.5,0.5,0.5,0.51533872277169,0.5,0.5,0.48466127722831,0.5,0.51533872277169,0.5,0.5,0.5,0.5,0.51533872277169,0.51533872277169,0.48466127722831,0.51533872277169,0.5,0.226804044040059,0.628397226709521,-0.51533872277169,-0.0158092756042232,0.5,0.0306774455433794,0.978916403829804,6.83670667573478,2.51437636539219,0.5,66.3678067457415
CBC_1019,CBC_1019_MSI_TV_v3_Vset5_Tset2_2023-06-28_16h17.24.850.csv,2,8,0,1,z,0,1,0,tac,B,63,1,0B,1B,0,1,b,3.191994,1,0,0,0,0B,1B,B01,3.13549421592915,0.5,0.469793107289154,0.5,0.5,0.5,0.51533872277169,0.5,0.5,0.48466127722831,0.5,0.51533872277169,0.5,0.5,0.5,0.5,0.499529447167467,0.48466127722831,0.51533872277169,0.5,0.51533872277169,0.0645488389695726,0.370723167271787,-0.5,-0.0153387227716897,0.5,0.0306774455433794,0.978916403829804,6.83670667573478,2.51437636539219,0.5,66.3678067457415
CBC_1019,CBC_1019_MSI_TV_v3_Vset5_Tset2_2023-06-28_16h17.24.850.csv,2,9,2,0,z,0,1,3,tac,A,27,1,2A,0A,0,1,z,2.9685056,0,1,1,1,0A,2A,A20,3.17805383034795,0.5,0.469793107289154,0.5,0.5,0.48466127722831,0.51533872277169,0.5,0.5,0.48466127722831,0.5,0.51533872277169,0.5,0.5,0.5,0.5,0.499529447167467,0.5,0.5,0.5,0.5,0.105333029745595,0.500854727694576,0.5,0.0153387227716897,0.5,0.0306774455433794,0.978916403829804,6.83670667573478,2.51437636539219,0.5,66.3678067457415
CBC_1019,CBC_1019_MSI_TV_v3_Vset5_Tset2_2023-06-28_16h17.24.850.csv,2,10,3,0,b,1,0,2,tac,D,9,1,3D,0D,1,0,z,2.3677922,0,1,0,0,0D,3D,D30,3.2188758248682,0.51533872277169,0.469793107289154,0.5,0.5,0.48466127722831,0.51533872277169,0.5,0.5,0.48466127722831,0.5,0.51533872277169,0.5,0.5,0.5,0.5,0.499529447167467,0.500470552832533,0.499529447167467,0.5,0.499529447167467,0.169171274339627,0.503559997180913,-0.5,-0.0153387227716897,0.5,0.0306774455433794,0.978916403829804,6.83670667573478,2.51437636539219,0.5,66.3678067457415
CBC_1019,CBC_1019_MSI_TV_v3_Vset5_Tset2_2023-06-28_16h17.24.850.csv,2,11,2,3,b,1,0,1,tac,C,63,1,2C,3C,1,0,z,3.0427023,0,1,0,0,3C,2C,C23,3.25809653802148,0.51533872277169,0.469793107289154,0.5,0.5,0.48466127722831,0.51533872277169,0.5,0.5,0.48466127722831,0.5,0.51533872277169,0.5,0.48466127722831,0.5,0.5,0.499529447167467,0.48466127722831,0.51533872277169,0.5,0.51533872277169,0.0727865124792344,0.370818777783355,-0.5,-0.0153387227716897,0.5,0.0306774455433794,0.978916403829804,6.83670667573478,2.51437636539219,0.5,66.3678067457415
CBC_1019,CBC_1019_MSI_TV_v3_Vset5_Tset2_2023-06-28_16h17.24.850.csv,2,12,0,1,z,0,1,0,tac,B,63,1,0B,1B,0,1,z,2.5909941,0,1,1,1,1B,0B,B01,2.60268968544438,0.51533872277169,0.469793107289154,0.5,0.5,0.48466127722831,0.51533872277169,0.5,0.5,0.48466127722831,0.5,0.51533872277169,0.48466127722831,0.48466127722831,0.5,0.5,0.499529447167467,0.530648601970439,0.469351398029561,0.51533872277169,0.48466127722831,0.207473648144573,0.741264659146575,0.48466127722831,0.0148681699391562,0.5,0.0306774455433794,0.978916403829804,6.83670667573478,2.51437636539219,0.5,66.3678067457415
CBC_1019,CBC_1019_MSI_TV_v3_Vset5_Tset2_2023-06-28_16h17.24.850.csv,2,13,2,3,z,0,1,2,tac,D,63,1,2D,3D,0,1,b,2.4005722,1,0,0,0,2D,3D,D23,2.63905732961526,0.51533872277169,0.469793107289154,0.5,0.5,0.48466127722831,0.530206892710846,0.5,0.5,0.48466127722831,0.5,0.51533872277169,0.48466127722831,0.48466127722831,0.5,0.5,0.499529447167467,0.500470552832533,0.499529447167467,0.5,0.499529447167467,0.165141881462439,0.504257705563537,-0.5,-0.0153387227716897,0.5,0.0306774455433794,0.978916403829804,6.83670667573478,2.51437636539219,0.5,66.3678067457415
CBC_1019,CBC_1019_MSI_TV_v3_Vset5_Tset2_2023-06-28_16h17.24.850.csv,2,14,2,3,b,1,0,1,tac,C,63,1,2C,3C,1,0,b,3.7807509,1,0,1,1,2C,3C,C23,2.67414864942653,0.51533872277169,0.469793107289154,0.5,0.5,0.48466127722831,0.530206892710846,0.5,0.5,0.48466127722831,0.5,0.51533872277169,0.48466127722831,0.48466127722831,0.5,0.48466127722831,0.499529447167467,0.530648601970439,0.469351398029561,0.51533872277169,0.48466127722831,0.0738594446824209,0.741036639921428,0.48466127722831,0.0148681699391562,0.5,0.0306774455433794,0.978916403829804,6.83670667573478,2.51437636539219,0.5,66.3678067457415
CBC_1019,CBC_1019_MSI_TV_v3_Vset5_Tset2_2023-06-28_16h17.24.850.csv,2,15,3,1,z,0,1,0,tac,B,27,1,3B,1B,0,1,z,3.5569678,0,1,1,1,1B,3B,B31,3.40119738166216,0.51533872277169,0.469793107289154,0.5,0.5,0.48466127722831,0.530206892710846,0.5,0.5,0.48466127722831,0.5,0.530206892710846,0.48466127722831,0.48466127722831,0.5,0.48466127722831,0.499529447167467,0.530206892710846,0.469793107289154,0.530206892710846,0.5,0.0895951838300176,0.738178254205902,0.469793107289154,0.014412052465518,0.5,0.0306774455433794,0.978916403829804,6.83670667573478,2.51437636539219,0.5,66.3678067457415
CBC_1019,CBC_1019_MSI_TV_v3_Vset5_Tset2_2023-06-28_16h17.24.850.csv,2,16,0,3,b,1,0,3,tac,A,9,1,0A,3A,1,0,b,2.8166803,1,0,1,1,0A,3A,A03,3.43398720448515,0.51533872277169,0.469793107289154,0.5,0.5,0.48466127722831,0.544618945176364,0.5,0.5,0.48466127722831,0.5,0.530206892710846,0.48466127722831,0.48466127722831,0.5,0.48466127722831,0.499529447167467,0.51533872277169,0.48466127722831,0.51533872277169,0.5,0.147987366702796,0.62883930232816,0.48466127722831,0.0148681699391562,0.5,0.0306774455433794,0.978916403829804,6.83670667573478,2.51437636539219,0.5,66.3678067457415
CBC_1019,CBC_1019_MSI_TV_v3_Vset5_Tset2_2023-06-28_16h17.24.850.csv,2,17,2,3,z,0,1,2,tac,D,63,1,2D,3D,0,1,b,2.2796864,1,0,0,0,2D,3D,D23,2.36712361413162,0.530206892710846,0.469793107289154,0.5,0.5,0.48466127722831,0.544618945176364,0.5,0.5,0.48466127722831,0.5,0.530206892710846,0.48466127722831,0.48466127722831,0.5,0.48466127722831,0.499529447167467,0.485131400793712,0.514868599206288,0.48466127722831,0.499529447167467,0.135615304888769,0.37494978943771,-0.48466127722831,-0.0148681699391562,0.5,0.0306774455433794,0.978916403829804,6.83670667573478,2.51437636539219,0.5,66.3678067457415
CBC_1019,CBC_1019_MSI_TV_v3_Vset5_Tset2_2023-06-28_16h17.24.850.csv,2,18,0,2,z,0,1,1,tac,C,27,1,0C,2C,0,1,z,2.8807155,0,1,1,1,2C,0C,C02,2.80336038090653,0.530206892710846,0.469793107289154,0.5,0.5,0.48466127722831,0.544618945176364,0.5,0.5,0.48466127722831,0.5,0.530206892710846,0.48466127722831,0.48466127722831,0.5,0.469793107289154,0.499529447167467,0.545461360097574,0.454538639902426,0.530206892710846,0.48466127722831,0.170371469786185,0.82673253601912,0.469793107289154,0.014412052465518,0.5,0.0306774455433794,0.978916403829804,6.83670667573478,2.51437636539219,0.5,66.3678067457415
CBC_1019,CBC_1019_MSI_TV_v3_Vset5_Tset2_2023-06-28_16h17.24.850.csv,2,19,0,1,b,1,0,3,tac,A,63,1,0A,1A,1,0,b,2.8169973,1,0,1,1,0A,1A,A01,2.42774823594805,0.530206892710846,0.469793107289154,0.5,0.5,0.48466127722831,0.544618945176364,0.5,0.5,0.48466127722831,0.5,0.544618945176364,0.48466127722831,0.48466127722831,0.5,0.469793107289154,0.499529447167467,0.560194087508023,0.439805912491977,0.530206892710846,0.469793107289154,0.178624024761604,0.888422292648846,0.469793107289154,0.014412052465518,0.5,0.0306774455433794,0.978916403829804,6.83670667573478,2.51437636539219,0.5,66.3678067457415
CBC_1019,CBC_1019_MSI_TV_v3_Vset5_Tset2_2023-06-28_16h17.24.850.csv,2,20,1,0,b,1,0,0,tac,B,63,0,1B,0B,0,1,b,1.3914311,1,0,1,0,1B,0B,B10,3.55534806148941,0.544618945176364,0.469793107289154,0.5,0.5,0.48466127722831,0.544618945176364,0.5,0.5,0.48466127722831,0.5,0.544618945176364,0.48466127722831,0.48466127722831,0.5,0.469793107289154,0.499529447167467,0.559793976524665,0.440206023475335,0.544618945176364,0.48466127722831,0.678779903765671,0.886553576086585,-0.544618945176364,-0.0167075180325406,0.5,0.0306774455433794,0.978916403829804,6.83670667573478,2.51437636539219,0.5,66.3678067457415
CBC_1019,CBC_1019_MSI_TV_v3_Vset5_Tset2_2023-06-28_16h17.24.850.csv,2,21,3,1,b,1,0,2,tac,D,27,1,3D,1D,1,0,b,2.8472677,1,0,1,1,3D,1D,D31,3.58351893845611,0.544618945176364,0.469793107289154,0.5,0.5,0.48466127722831,0.527911427143823,0.5,0.5,0.48466127722831,0.5,0.544618945176364,0.48466127722831,0.48466127722831,0.5,0.469793107289154,0.499529447167467,0.499529447167467,0.500470552832533,0.499529447167467,0.5,0.114609298202809,0.495765836856819,0.500470552832533,0.015353158130585,0.5,0.0306774455433794,0.978916403829804,6.83670667573478,2.51437636539219,0.5,66.3678067457415
CBC_1019,CBC_1019_MSI_TV_v3_Vset5_Tset2_2023-06-28_16h17.24.850.csv,2,22,3,2,z,0,1,1,tac,C,63,1,3C,2C,NaN,NaN,None,NaN,NaN,NaN,NaN,NaN,,,C32,2.91777073208428,0.544618945176364,0.469793107289154,0.5,0.5,0.48466127722831,0.527911427143823,0.5,0.5,0.48466127722831,0.5,0.544618945176364,0.48466127722831,0.48466127722831,0.5,0.469793107289154,0.514882605298052,0,0,0,0,NaN,0,0,0,0.5,0.0306774455433794,0.978916403829804,6.83670667573478,2.51437636539219,0.5,66.3678067457415
CBC_1019,CBC_1019_MSI_TV_v3_Vset5_Tset2_2023-06-28_16h17.24.850.csv,2,23,0,1,z,0,1,0,tac,B,63,1,0B,1B,0,1,z,1.1478389,0,1,1,1,1B,0B,B01,2.53897387105828,0.544618945176364,0.469793107289154,0.5,0.5,0.48466127722831,0.527911427143823,0.5,0.5,0.48466127722831,0.5,0.544618945176364,0.48466127722831,0.48466127722831,0.5,0.469793107289154,0.514882605298052,0.543176210543886,0.456823789456114,0.527911427143823,0.48466127722831,0.136672264586082,0.814548985864305,0.472088572856177,0.014482471485447,0.5,0.0306774455433794,0.978916403829804,6.83670667573478,2.51437636539219,0.5,66.3678067457415
CBC_1019,CBC_1019_MSI_TV_v3_Vset5_Tset2_2023-06-28_16h17.24.850.csv,2,24,0,2,b,1,0,3,tac,A,27,1,0A,2A,1,0,b,2.2034248,1,0,1,1,0A,2A,A02,3.66356164612965,0.544618945176364,0.469793107289154,0.5,0.5,0.48466127722831,0.54239389862927,0.5,0.5,0.48466127722831,0.5,0.544618945176364,0.48466127722831,0.48466127722831,0.5,0.469793107289154,0.514882605298052,0.544618945176364,0.455381054823636,0.544618945176364,0.5,0.327068161184682,0.822493080606381,0.455381054823636,0.0139699275108388,0.5,0.0306774455433794,0.978916403829804,6.83670667573478,2.51437636539219,0.5,66.3678067457415
CBC_1019,CBC_1019_MSI_TV_v3_Vset5_Tset2_2023-06-28_16h17.24.850.csv,2,25,3,2,b,1,0,2,tac,D,63,1,3D,2D,1,0,b,3.1931317,1,0,1,1,3D,2D,D32,2.99573227355399,0.558588872687203,0.469793107289154,0.5,0.5,0.48466127722831,0.54239389862927,0.5,0.5,0.48466127722831,0.5,0.544618945176364,0.48466127722831,0.48466127722831,0.5,0.469793107289154,0.514882605298052,0.545008562304843,0.454991437695157,0.514882605298052,0.469793107289154,0.125786256777263,0.824188724721382,0.485117394701948,0.0148821624581151,0.5,0.0306774455433794,0.978916403829804,6.83670667573478,2.51437636539219,0.5,66.3678067457415
CBC_1019,CBC_1019_MSI_TV_v3_Vset5_Tset2_2023-06-28_16h17.24.850.csv,2,26,0,2,z,0,1,1,tac,C,27,1,0C,2C,0,1,z,2.9534942,0,1,1,1,2C,0C,C02,2.6149597780362,0.558588872687203,0.469793107289154,0.5,0.5,0.48466127722831,0.54239389862927,0.5,0.5,0.48466127722831,0.5,0.544618945176364,0.48466127722831,0.48466127722831,0.5,0.469793107289154,0.529764767756167,0.559793976524665,0.440206023475335,0.544618945176364,0.48466127722831,0.153758292972165,0.886284765169169,0.455381054823636,0.0139699275108388,0.5,0.0306774455433794,0.978916403829804,6.83670667573478,2.51437636539219,0.5,66.3678067457415
CBC_1019,CBC_1019_MSI_TV_v3_Vset5_Tset2_2023-06-28_16h17.24.850.csv,2,27,0,1,z,0,1,0,tac,B,63,1,0B,1B,0,1,z,2.6121374,0,1,1,1,1B,0B,B01,2.35137525716348,0.558588872687203,0.469793107289154,0.5,0.5,0.48466127722831,0.54239389862927,0.5,0.5,0.48466127722831,0.5,0.558588872687203,0.48466127722831,0.48466127722831,0.5,0.469793107289154,0.529764767756167,0.557582844217694,0.442417155782306,0.54239389862927,0.48466127722831,0.225232320366598,0.878358932449976,0.45760610137073,0.0140381862551187,0.5,0.0306774455433794,0.978916403829804,6.83670667573478,2.51437636539219,0.5,66.3678067457415
CBC_1019,CBC_1019_MSI_TV_v3_Vset5_Tset2_2023-06-28_16h17.24.850.csv,2,28,1,0,z,0,1,3,tac,A,63,1,1A,0A,0,1,z,1.5995394,0,1,1,1,0A,1A,A10,3.76120011569356,0.558588872687203,0.469793107289154,0.5,0.5,0.48466127722831,0.556432084884389,0.5,0.5,0.48466127722831,0.5,0.558588872687203,0.48466127722831,0.48466127722831,0.5,0.469793107289154,0.529764767756167,0.588171585416406,0.411828414583594,0.558588872687203,0.469793107289154,0.832546816161184,0.953982463720044,0.441411127312797,0.01354136582038,0.5,0.0306774455433794,0.978916403829804,6.83670667573478,2.51437636539219,0.5,66.3678067457415
CBC_1019,CBC_1019_MSI_TV_v3_Vset5_Tset2_2023-06-28_16h17.24.850.csv,2,29,2,3,b,1,0,1,tac,C,63,0,2C,3C,0,1,z,1.7286652,0,1,0,1,3C,2C,C23,2.68557734525015,0.572130238507583,0.469793107289154,0.5,0.5,0.48466127722831,0.556432084884389,0.5,0.5,0.48466127722831,0.5,0.558588872687203,0.48466127722831,0.48466127722831,0.5,0.469793107289154,0.529764767756167,0.426337201227959,0.573662798772041,0.48466127722831,0.558588872687203,0.0517181721341255,0.0733834541863446,0.51533872277169,0.0158092756042232,0.5,0.0306774455433794,0.978916403829804,6.83670667573478,2.51437636539219,0.5,66.3678067457415
CBC_1019,CBC_1019_MSI_TV_v3_Vset5_Tset2_2023-06-28_16h17.24.850.csv,2,30,1,3,z,0,1,2,tac,D,27,1,1D,3D,0,1,z,2.018582,0,1,1,1,3D,1D,D13,3.80666248977032,0.572130238507583,0.469793107289154,0.5,0.5,0.48466127722831,0.556432084884389,0.5,0.5,0.48466127722831,0.5,0.558588872687203,0.500470552832533,0.48466127722831,0.5,0.469793107289154,0.529764767756167,0.529764767756167,0.470235232243833,0.529764767756167,0.5,0.33657106304619,0.7361470509946,0.470235232243833,0.0144256157297385,0.5,0.0306774455433794,0.978916403829804,6.83670667573478,2.51437636539219,0.5,66.3678067457415
CBC_1019,CBC_1019_MSI_TV_v3_Vset5_Tset2_2023-06-28_16h17.24.850.csv,2,31,0,1,b,1,0,3,tac,A,63,1,0A,1A,1,0,b,1.3902008,1,0,1,1,0A,1A,A01,2.4423470353692,0.572130238507583,0.469793107289154,0.5,0.5,0.48466127722831,0.556432084884389,0.5,0.5,0.48466127722831,0.5,0.558588872687203,0.500470552832533,0.48466127722831,0.5,0.469793107289154,0.544190383485905,0.601452936261464,0.398547063738536,0.572130238507583,0.469793107289154,1.07191261255729,0.970342548562809,0.427869761492417,0.0131259513078424,0.5,0.0306774455433794,0.978916403829804,6.83670667573478,2.51437636539219,0.5,66.3678067457415
CBC_1019,CBC_1019_MSI_TV_v3_Vset5_Tset2_2023-06-28_16h17.24.850.csv,2,32,2,3,z,0,1,2,tac,D,63,1,2D,3D,0,1,b,3.4218016,1,0,0,0,2D,3D,D23,2.46385324059017,0.585256189815425,0.469793107289154,0.5,0.5,0.48466127722831,0.556432084884389,0.5,0.5,0.48466127722831,0.5,0.558588872687203,0.500470552832533,0.48466127722831,0.5,0.469793107289154,0.544190383485905,0.425997852106897,0.574002147893103,0.469793107289154,0.544190383485905,0.00593691333998851,0.0729207903422017,-0.469793107289154,-0.014412052465518,0.5,0.0306774455433794,0.978916403829804,6.83670667573478,2.51437636539219,0.5,66.3678067457415
CBC_1019,CBC_1019_MSI_TV_v3_Vset5_Tset2_2023-06-28_16h17.24.850.csv,2,33,1,2,b,1,0,0,tac,B,9,1,1B,2B,1,0,b,1.6670956,1,0,1,1,1B,2B,B12,3.87120101090789,0.585256189815425,0.469793107289154,0.5,0.5,0.48466127722831,0.556432084884389,0.5,0.5,0.48466127722831,0.5,0.558588872687203,0.500470552832533,0.48466127722831,0.5,0.455381054823636,0.544190383485905,0.556432084884389,0.443567915115611,0.556432084884389,0.5,0.598735296817335,0.874370947408663,0.443567915115611,0.0136075305607495,0.5,0.0306774455433794,0.978916403829804,6.83670667573478,2.51437636539219,0.5,66.3678067457415
CBC_1019,CBC_1019_MSI_TV_v3_Vset5_Tset2_2023-06-28_16h17.24.850.csv,2,34,0,1,b,1,0,3,tac,A,63,1,0A,1A,1,0,b,1.4035191,1,0,1,1,0A,1A,A01,2.28238238567653,0.585256189815425,0.469793107289154,0.5,0.5,0.48466127722831,0.570039615445138,0.5,0.5,0.48466127722831,0.5,0.558588872687203,0.500470552832533,0.48466127722831,0.5,0.455381054823636,0.544190383485905,0.614285790505139,0.385714209494861,0.585256189815425,0.469793107289154,1.19777709652484,0.980771436521858,0.414743810184575,0.012723280651391,0.5,0.0306774455433794,0.978916403829804,6.83670667573478,2.51437636539219,0.5,66.3678067457415
CBC_1019,CBC_1019_MSI_TV_v3_Vset5_Tset2_2023-06-28_16h17.24.850.csv,2,35,1,2,z,0,1,1,tac,C,9,1,1C,2C,0,1,z,1.1644528,0,1,1,1,2C,1C,C12,3.91202300542815,0.597979470466816,0.469793107289154,0.5,0.5,0.48466127722831,0.570039615445138,0.5,0.5,0.48466127722831,0.5,0.558588872687203,0.500470552832533,0.48466127722831,0.5,0.455381054823636,0.544190383485905,0.558588872687203,0.441411127312797,0.558588872687203,0.5,0.228749417847234,0.882265643519812,0.441411127312797,0.01354136582038,0.5,0.0306774455433794,0.978916403829804,6.83670667573478,2.51437636539219,0.5,66.3678067457415
CBC_1019,CBC_1019_MSI_TV_v3_Vset5_Tset2_2023-06-28_16h17.24.850.csv,2,36,0,1,z,0,1,0,tac,B,63,1,0B,1B,0,1,z,1.3694181,0,1,1,1,1B,0B,B01,2.32238772029023,0.597979470466816,0.469793107289154,0.5,0.5,0.48466127722831,0.570039615445138,0.5,0.5,0.48466127722831,0.5,0.572130238507583,0.500470552832533,0.48466127722831,0.5,0.455381054823636,0.544190383485905,0.585013014088658,0.414986985911342,0.570039615445138,0.48466127722831,0.898285610966239,0.948726769455146,0.429960384554862,0.0131900862829922,0.5,0.0306774455433794,0.978916403829804,6.83670667573478,2.51437636539219,0.5,66.3678067457415
CBC_1019,CBC_1019_MSI_TV_v3_Vset5_Tset2_2023-06-28_16h17.24.850.csv,2,37,1,0,z,0,1,3,tac,A,63,0,1A,0A,1,0,z,1.2886122,0,1,1,0,0A,1A,A10,3.25809653802148,0.597979470466816,0.469793107289154,0.5,0.5,0.48466127722831,0.583229701728131,0.5,0.5,0.48466127722831,0.5,0.572130238507583,0.500470552832533,0.48466127722831,0.5,0.455381054823636,0.544190383485905,0.626686568851421,0.373313431148579,0.597979470466816,0.469793107289154,1.25769106934201,0.987314386324635,-0.597979470466816,-0.0183444826413046,0.5,0.0306774455433794,0.978916403829804,6.83670667573478,2.51437636539219,0.5,66.3678067457415
CBC_1019,CBC_1019_MSI_TV_v3_Vset5_Tset2_2023-06-28_16h17.24.850.csv,2,38,1,0,b,1,0,0,tac,B,63,1,1B,0B,1,0,b,1.7449358,1,0,1,1,1B,0B,B10,3.27714473299218,0.579634987825511,0.469793107289154,0.5,0.5,0.48466127722831,0.583229701728131,0.5,0.5,0.48466127722831,0.5,0.572130238507583,0.500470552832533,0.48466127722831,0.5,0.455381054823636,0.544190383485905,0.598067637276831,0.401932362723169,0.583229701728131,0.48466127722831,0.722068323832674,0.966776193196013,0.416770298271869,0.0127854481293332,0.5,0.0306774455433794,0.978916403829804,6.83670667573478,2.51437636539219,0.5,66.3678067457415
CBC_1019,CBC_1019_MSI_TV_v3_Vset5_Tset2_2023-06-28_16h17.24.850.csv,2,39,3,1,b,1,0,2,tac,D,27,1,3D,1D,1,0,b,1.8735198,1,0,1,1,3D,1D,D31,3.29583686600433,0.579634987825511,0.469793107289154,0.5,0.5,0.48466127722831,0.596015149857464,0.5,0.5,0.48466127722831,0.5,0.572130238507583,0.500470552832533,0.48466127722831,0.5,0.455381054823636,0.544190383485905,0.544190383485905,0.455809616514095,0.544190383485905,0.5,0.443893690664019,0.820652687994115,0.455809616514095,0.0139830746887598,0.5,0.0306774455433794,0.978916403829804,6.83670667573478,2.51437636539219,0.5,66.3678067457415
CBC_1019,CBC_1019_MSI_TV_v3_Vset5_Tset2_2023-06-28_16h17.24.850.csv,2,40,2,3,b,1,0,1,tac,C,63,1,2C,3C,1,0,z,2.1863712,0,1,0,0,3C,2C,C23,2.62103882411258,0.579634987825511,0.469793107289154,0.5,0.5,0.48466127722831,0.596015149857464,0.5,0.5,0.48466127722831,0.5,0.572130238507583,0.500470552832533,0.48466127722831,0.5,0.455381054823636,0.558173458174665,0.428330584173141,0.571669415826859,0.500470552832533,0.572130238507583,0.0316054462623233,0.0784777187218545,-0.500470552832533,-0.015353158130585,0.5,0.0306774455433794,0.978916403829804,6.83670667573478,2.51437636539219,0.5,66.3678067457415
CBC_1019,CBC_1019_MSI_TV_v3_Vset5_Tset2_2023-06-28_16h17.24.850.csv,2,41,2,0,z,0,1,3,tac,A,27,1,2A,0A,0,1,z,1.4287192,0,1,1,1,0A,2A,A20,3.3322045101752,0.579634987825511,0.469793107289154,0.5,0.5,0.48466127722831,0.596015149857464,0.5,0.5,0.48466127722831,0.5,0.572130238507583,0.485117394701948,0.48466127722831,0.5,0.455381054823636,0.558173458174665,0.579634987825511,0.420365012174489,0.579634987825511,0.5,0.865299119218637,0.939522325440734,0.420365012174489,0.0128957247693249,0.5,0.0306774455433794,0.978916403829804,6.83670667573478,2.51437636539219,0.5,66.3678067457415
CBC_1019,CBC_1019_MSI_TV_v3_Vset5_Tset2_2023-06-28_16h17.24.850.csv,2,42,3,2,b,1,0,2,tac,D,63,1,3D,2D,1,0,b,2.3927048,1,0,1,1,3D,2D,D32,2.94443897916644,0.592530712594836,0.469793107289154,0.5,0.5,0.48466127722831,0.596015149857464,0.5,0.5,0.48466127722831,0.5,0.572130238507583,0.485117394701948,0.48466127722831,0.5,0.455381054823636,0.558173458174665,0.601736122628783,0.398263877371217,0.558173458174665,0.455381054823636,0.240912122224496,0.970717491652443,0.441826541825335,0.0135541096764663,0.5,0.0306774455433794,0.978916403829804,6.83670667573478,2.51437636539219,0.5,66.3678067457415
CBC_1019,CBC_1019_MSI_TV_v3_Vset5_Tset2_2023-06-28_16h17.24.850.csv,2,43,3,1,z,0,1,0,tac,B,27,1,3B,1B,0,1,z,1.6080262,0,1,1,1,1B,3B,B31,3.36729582998647,0.592530712594836,0.469793107289154,0.5,0.5,0.48466127722831,0.596015149857464,0.5,0.5,0.48466127722831,0.5,0.572130238507583,0.485117394701948,0.48466127722831,0.5,0.455381054823636,0.571727567851131,0.596015149857464,0.403984850142536,0.596015149857464,0.5,0.866832169233108,0.964447790740993,0.403984850142536,0.0123932232405979,0.5,0.0306774455433794,0.978916403829804,6.83670667573478,2.51437636539219,0.5,66.3678067457415
CBC_1019,CBC_1019_MSI_TV_v3_Vset5_Tset2_2023-06-28_16h17.24.850.csv,2,44,2,3,b,1,0,1,tac,C,63,1,2C,3C,1,0,b,2.1314321,1,0,1,1,2C,3C,C23,2.46809953147162,0.592530712594836,0.469793107289154,0.5,0.5,0.48466127722831,0.608408373098062,0.5,0.5,0.48466127722831,0.5,0.572130238507583,0.485117394701948,0.48466127722831,0.5,0.455381054823636,0.571727567851131,0.586640813051412,0.413359186948588,0.572130238507583,0.485117394701948,0.398352452348566,0.951433799410619,0.427869761492417,0.0131259513078424,0.5,0.0306774455433794,0.978916403829804,6.83670667573478,2.51437636539219,0.5,66.3678067457415
CBC_1019,CBC_1019_MSI_AV_v3_Vset4_Aset3_2023-06-28_17h50.15.634.csv,3,1,1,3,b,1,0,0,aud,B,27,1,1B,3B,1,0,b,2.297013899999,1,0,1,1,1B,3B,B13,2.77258872223978,0.5,0.5,0.5,0.5,0.5,0.5,0.5,0.5,0.5,0.5,0.5,0.5,0.5,0.5,0.5,0.5,0.5,0.5,0.5,0.5,0.179560299064569,0.500699143200904,0.5,0.191827786681768,0.5,0.383655573363537,0.99304761091693,1.44629104298988,2.48266941732835,0.5,51.862613348958
CBC_1019,CBC_1019_MSI_AV_v3_Vset4_Aset3_2023-06-28_17h50.15.634.csv,3,2,3,2,z,0,1,1,aud,C,63,1,3C,2C,0,1,b,2.95673379999789,1,0,0,0,3C,2C,C32,2.83321334405622,0.5,0.5,0.5,0.5,0.5,0.691827786681768,0.5,0.5,0.5,0.5,0.5,0.5,0.5,0.5,0.5,0.5,0.5,0.5,0.5,0.5,0.105690902785807,0.499449967815619,-0.5,-0.191827786681768,0.5,0.383655573363537,0.99304761091693,1.44629104298988,2.48266941732835,0.5,51.862613348958
CBC_1019,CBC_1019_MSI_AV_v3_Vset4_Aset3_2023-06-28_17h50.15.634.csv,3,3,3,2,b,1,0,2,aud,D,63,1,3D,2D,1,0,b,2.13012530000015,1,0,1,1,3D,2D,D32,2.89037175789616,0.5,0.5,0.5,0.5,0.5,0.691827786681768,0.5,0.5,0.5,0.5,0.5,0.308172213318232,0.5,0.5,0.5,0.5,0.5,0.5,0.5,0.5,0.204659899173271,0.499987638859143,0.5,0.191827786681768,0.5,0.383655573363537,0.99304761091693,1.44629104298988,2.48266941732835,0.5,51.862613348958
CBC_1019,CBC_1019_MSI_AV_v3_Vset4_Aset3_2023-06-28_17h50.15.634.csv,3,4,0,1,z,0,1,0,aud,B,63,0,0B,1B,1,0,z,1.77212379999946,0,1,1,0,1B,0B,B01,2.94443897916644,0.5,0.5,0.5,0.5,0.5,0.691827786681768,0.5,0.5,0.5,0.5,0.5,0.308172213318232,0.5,0.5,0.5,0.691827786681768,0.691827786681768,0.308172213318232,0.691827786681768,0.5,0.47235881299951,0.79832843096073,-0.691827786681768,-0.26542358616822,0.5,0.383655573363537,0.99304761091693,1.44629104298988,2.48266941732835,0.5,51.862613348958
CBC_1019,CBC_1019_MSI_AV_v3_Vset4_Aset3_2023-06-28_17h50.15.634.csv,3,5,0,3,b,1,0,3,aud,A,9,1,0A,3A,1,0,b,2.37205799999902,1,0,1,1,0A,3A,A03,2.99573227355399,0.5,0.5,0.5,0.5,0.5,0.426404200513548,0.5,0.5,0.5,0.5,0.5,0.308172213318232,0.5,0.5,0.5,0.691827786681768,0.5,0.5,0.5,0.5,0.169187106272989,0.500852611095675,0.5,0.191827786681768,0.5,0.383655573363537,0.99304761091693,1.44629104298988,2.48266941732835,0.5,51.862613348958
CBC_1019,CBC_1019_MSI_AV_v3_Vset4_Aset3_2023-06-28_17h50.15.634.csv,3,6,3,2,b,1,0,2,aud,D,63,1,3D,2D,1,0,z,2.69385499999953,0,1,0,0,2D,3D,D32,2.35137525716348,0.691827786681768,0.5,0.5,0.5,0.5,0.426404200513548,0.5,0.5,0.5,0.5,0.5,0.308172213318232,0.5,0.5,0.5,0.691827786681768,0.308172213318232,0.691827786681768,0.5,0.691827786681768,0.0504031054261433,0.201147905341677,-0.5,-0.191827786681768,0.5,0.383655573363537,0.99304761091693,1.44629104298988,2.48266941732835,0.5,51.862613348958
CBC_1019,CBC_1019_MSI_AV_v3_Vset4_Aset3_2023-06-28_17h50.15.634.csv,3,7,0,2,z,0,1,1,aud,C,27,1,0C,2C,0,1,b,2.56736900000033,1,0,0,0,0C,2C,C02,3.09104245335832,0.691827786681768,0.5,0.5,0.5,0.5,0.426404200513548,0.5,0.5,0.5,0.5,0.5,0.308172213318232,0.5,0.5,0.308172213318232,0.691827786681768,0.5,0.5,0.5,0.5,0.144401954578249,0.49967951971864,-0.5,-0.191827786681768,0.5,0.383655573363537,0.99304761091693,1.44629104298988,2.48266941732835,0.5,51.862613348958
CBC_1019,CBC_1019_MSI_AV_v3_Vset4_Aset3_2023-06-28_17h50.15.634.csv,3,8,0,1,b,1,0,3,aud,A,63,1,0A,1A,1,0,b,2.02084709999872,1,0,1,1,0A,1A,A01,3.13549421592915,0.691827786681768,0.5,0.5,0.5,0.5,0.426404200513548,0.5,0.5,0.308172213318232,0.5,0.5,0.308172213318232,0.5,0.5,0.308172213318232,0.691827786681768,0.691827786681768,0.308172213318232,0.691827786681768,0.5,0.37873331303435,0.798302827762075,0.308172213318232,0.118231987195316,0.5,0.383655573363537,0.99304761091693,1.44629104298988,2.48266941732835,0.5,51.862613348958
CBC_1019,CBC_1019_MSI_AV_v3_Vset4_Aset3_2023-06-28_17h50.15.634.csv,3,9,1,0,b,1,0,0,aud,B,63,1,1B,0B,1,0,b,2.56008249999832,1,0,1,1,1B,0B,B10,3.17805383034795,0.810059773877084,0.5,0.5,0.5,0.5,0.426404200513548,0.5,0.5,0.308172213318232,0.5,0.5,0.308172213318232,0.5,0.5,0.308172213318232,0.691827786681768,0.426404200513548,0.573595799486452,0.426404200513548,0.5,0.107511921425955,0.370237652568201,0.573595799486452,0.220063225330891,0.5,0.383655573363537,0.99304761091693,1.44629104298988,2.48266941732835,0.5,51.862613348958
CBC_1019,CBC_1019_MSI_AV_v3_Vset4_Aset3_2023-06-28_17h50.15.634.csv,3,10,1,3,z,0,1,2,aud,D,27,1,1D,3D,0,1,z,2.27822620000006,0,1,1,1,3D,1D,D13,3.2188758248682,0.810059773877084,0.5,0.5,0.5,0.5,0.646467425844439,0.5,0.5,0.308172213318232,0.5,0.5,0.308172213318232,0.5,0.5,0.308172213318232,0.691827786681768,0.691827786681768,0.308172213318232,0.691827786681768,0.5,0.297155066049003,0.798032470149498,0.308172213318232,0.118231987195316,0.5,0.383655573363537,0.99304761091693,1.44629104298988,2.48266941732835,0.5,51.862613348958
CBC_1019,CBC_1019_MSI_AV_v3_Vset4_Aset3_2023-06-28_17h50.15.634.csv,3,11,3,2,z,0,1,1,aud,C,63,1,3C,2C,0,1,z,1.78860539999914,0,1,1,1,2C,3C,C32,2.56494935746154,0.810059773877084,0.5,0.5,0.5,0.5,0.646467425844439,0.5,0.5,0.308172213318232,0.5,0.5,0.308172213318232,0.5,0.5,0.308172213318232,0.810059773877084,0.691827786681768,0.308172213318232,0.5,0.308172213318232,0.465470470957506,0.797804426959466,0.5,0.191827786681768,0.5,0.383655573363537,0.99304761091693,1.44629104298988,2.48266941732835,0.5,51.862613348958
CBC_1019,CBC_1019_MSI_AV_v3_Vset4_Aset3_2023-06-28_17h50.15.634.csv,3,12,1,0,b,1,0,0,aud,B,63,1,1B,0B,1,0,b,2.32751249999819,1,0,1,1,1B,0B,B10,2.60268968544438,0.810059773877084,0.5,0.5,0.5,0.5,0.646467425844439,0.5,0.5,0.308172213318232,0.5,0.691827786681768,0.308172213318232,0.5,0.5,0.308172213318232,0.810059773877084,0.646467425844439,0.353532574155561,0.646467425844439,0.5,0.26270519676376,0.741169444613522,0.353532574155561,0.135634742440339,0.5,0.383655573363537,0.99304761091693,1.44629104298988,2.48266941732835,0.5,51.862613348958
CBC_1019,CBC_1019_MSI_AV_v3_Vset4_Aset3_2023-06-28_17h50.15.634.csv,3,13,0,1,b,1,0,3,aud,A,63,1,0A,1A,1,0,b,3.24049319999904,1,0,1,1,0A,1A,A01,2.63905732961526,0.810059773877084,0.5,0.5,0.5,0.5,0.782102168284778,0.5,0.5,0.308172213318232,0.5,0.691827786681768,0.308172213318232,0.5,0.5,0.308172213318232,0.810059773877084,0.810059773877084,0.189940226122916,0.810059773877084,0.5,0.103938168803428,0.902634348850769,0.189940226122916,0.0728716263579869,0.5,0.383655573363537,0.99304761091693,1.44629104298988,2.48266941732835,0.5,51.862613348958
CBC_1019,CBC_1019_MSI_AV_v3_Vset4_Aset3_2023-06-28_17h50.15.634.csv,3,14,1,2,z,0,1,1,aud,C,9,1,1C,2C,0,1,z,2.15195540000059,0,1,1,1,2C,1C,C12,3.36729582998647,0.882931400235071,0.5,0.5,0.5,0.5,0.782102168284778,0.5,0.5,0.308172213318232,0.5,0.691827786681768,0.308172213318232,0.5,0.5,0.308172213318232,0.810059773877084,0.691827786681768,0.308172213318232,0.691827786681768,0.5,0.33512216269692,0.798566921131247,0.308172213318232,0.118231987195316,0.5,0.383655573363537,0.99304761091693,1.44629104298988,2.48266941732835,0.5,51.862613348958
CBC_1019,CBC_1019_MSI_AV_v3_Vset4_Aset3_2023-06-28_17h50.15.634.csv,3,15,1,0,z,0,1,3,aud,A,63,1,1A,0A,0,1,z,1.28130299999975,0,1,1,1,0A,1A,A10,3.40119738166216,0.882931400235071,0.5,0.5,0.5,0.5,0.782102168284778,0.5,0.5,0.308172213318232,0.5,0.810059773877084,0.308172213318232,0.5,0.5,0.308172213318232,0.810059773877084,0.882931400235071,0.117068599764929,0.882931400235071,0.5,0.731911271632885,0.939830356424454,0.117068599764929,0.04491402076568,0.5,0.383655573363537,0.99304761091693,1.44629104298988,2.48266941732835,0.5,51.862613348958
CBC_1019,CBC_1019_MSI_AV_v3_Vset4_Aset3_2023-06-28_17h50.15.634.csv,3,16,3,1,b,1,0,2,aud,D,27,1,3D,1D,1,0,b,1.73045949999869,1,0,1,1,3D,1D,D31,3.43398720448515,0.927845421000752,0.5,0.5,0.5,0.5,0.782102168284778,0.5,0.5,0.308172213318232,0.5,0.810059773877084,0.308172213318232,0.5,0.5,0.308172213318232,0.810059773877084,0.810059773877084,0.189940226122916,0.810059773877084,0.5,0.622535212778481,0.902863855377412,0.189940226122916,0.0728716263579869,0.5,0.383655573363537,0.99304761091693,1.44629104298988,2.48266941732835,0.5,51.862613348958
CBC_1019,CBC_1019_MSI_AV_v3_Vset4_Aset3_2023-06-28_17h50.15.634.csv,3,17,0,1,z,0,1,0,aud,B,63,1,0B,1B,0,1,z,1.68995349999932,0,1,1,1,1B,0B,B01,2.77258872223978,0.927845421000752,0.5,0.5,0.5,0.5,0.782102168284778,0.5,0.5,0.308172213318232,0.5,0.810059773877084,0.308172213318232,0.5,0.5,0.308172213318232,0.882931400235071,0.782102168284778,0.217897831715222,0.782102168284778,0.5,0.61496182828968,0.883470194577018,0.217897831715222,0.083597717561375,0.5,0.383655573363537,0.99304761091693,1.44629104298988,2.48266941732835,0.5,51.862613348958
CBC_1019,CBC_1019_MSI_AV_v3_Vset4_Aset3_2023-06-28_17h50.15.634.csv,3,18,2,3,b,1,0,1,aud,C,63,0,2C,3C,0,1,b,3.29556589999993,1,0,1,0,2C,3C,C23,3.49650756146648,0.927845421000752,0.5,0.5,0.5,0.5,0.865699885846153,0.5,0.5,0.308172213318232,0.5,0.810059773877084,0.308172213318232,0.5,0.5,0.308172213318232,0.882931400235071,0.905430620721434,0.0945693792785656,0.810059773877084,0.308172213318232,0.070925921444712,0.948507023657368,-0.810059773877084,-0.31078394700555,0.5,0.383655573363537,0.99304761091693,1.44629104298988,2.48266941732835,0.5,51.862613348958
CBC_1019,CBC_1019_MSI_AV_v3_Vset4_Aset3_2023-06-28_17h50.15.634.csv,3,19,2,0,z,0,1,3,aud,A,27,1,2A,0A,0,1,z,1.8467729999993,0,1,1,1,0A,2A,A20,3.52636052461616,0.927845421000752,0.5,0.5,0.5,0.5,0.865699885846153,0.5,0.5,0.308172213318232,0.5,0.499275826871535,0.308172213318232,0.5,0.5,0.308172213318232,0.882931400235071,0.927845421000752,0.0721545789992485,0.927845421000752,0.5,0.614020254489061,0.955744710517117,0.0721545789992485,0.0276825063767613,0.5,0.383655573363537,0.99304761091693,1.44629104298988,2.48266941732835,0.5,51.862613348958
CBC_1019,CBC_1019_MSI_AV_v3_Vset4_Aset3_2023-06-28_17h50.15.634.csv,3,20,3,2,b,1,0,2,aud,D,63,1,3D,2D,1,0,b,1.22781899999791,1,0,1,1,3D,2D,D32,2.4567357728213,0.955527927377513,0.5,0.5,0.5,0.5,0.865699885846153,0.5,0.5,0.308172213318232,0.5,0.499275826871535,0.308172213318232,0.5,0.5,0.308172213318232,0.882931400235071,0.944231686817584,0.0557683131824156,0.882931400235071,0.308172213318232,0.663931155343789,0.960455273141133,0.117068599764929,0.04491402076568,0.5,0.383655573363537,0.99304761091693,1.44629104298988,2.48266941732835,0.5,51.862613348958
CBC_1019,CBC_1019_MSI_AV_v3_Vset4_Aset3_2023-06-28_17h50.15.634.csv,3,21,3,1,z,0,1,0,aud,B,27,1,3B,1B,0,1,z,1.72134630000073,0,1,1,1,1B,3B,B31,3.58351893845611,0.955527927377513,0.5,0.5,0.5,0.5,0.865699885846153,0.5,0.5,0.308172213318232,0.5,0.499275826871535,0.308172213318232,0.5,0.5,0.308172213318232,0.927845421000752,0.865699885846153,0.134300114153847,0.865699885846153,0.5,0.68405867793596,0.932649375153796,0.134300114153847,0.0515249872984827,0.5,0.383655573363537,0.99304761091693,1.44629104298988,2.48266941732835,0.5,51.862613348958
CBC_1019,CBC_1019_MSI_AV_v3_Vset4_Aset3_2023-06-28_17h50.15.634.csv,3,22,3,2,z,0,1,1,aud,C,63,1,3C,2C,0,1,z,2.22151159999885,0,1,1,1,2C,3C,C32,2.51230562397611,0.955527927377513,0.5,0.5,0.5,0.5,0.917224873144635,0.5,0.5,0.308172213318232,0.5,0.499275826871535,0.308172213318232,0.5,0.5,0.308172213318232,0.927845421000752,0.691209862394428,0.308790137605572,0.499275826871535,0.308172213318232,0.313554922001034,0.798015979280013,0.500724173128465,0.192105619738584,0.5,0.383655573363537,0.99304761091693,1.44629104298988,2.48266941732835,0.5,51.862613348958
CBC_1019,CBC_1019_MSI_AV_v3_Vset4_Aset3_2023-06-28_17h50.15.634.csv,3,23,0,1,b,1,0,3,aud,A,63,0,0A,1A,0,1,b,1.16619289999835,1,0,1,0,0A,1A,A01,2.53897387105828,0.955527927377513,0.5,0.5,0.5,0.5,0.917224873144635,0.5,0.5,0.308172213318232,0.5,0.691381446610119,0.308172213318232,0.5,0.5,0.308172213318232,0.927845421000752,0.955527927377513,0.0444720726224872,0.955527927377513,0.5,0.353971191872272,0.963275250803399,-0.955527927377513,-0.366593614842891,0.5,0.383655573363537,0.99304761091693,1.44629104298988,2.48266941732835,0.5,51.862613348958
CBC_1019,CBC_1019_MSI_AV_v3_Vset4_Aset3_2023-06-28_17h50.15.634.csv,3,24,2,1,z,0,1,0,aud,B,9,1,2B,1B,0,1,z,1.42438859999857,0,1,1,1,1B,2B,B21,3.66356164612965,0.588934312534621,0.5,0.5,0.5,0.5,0.917224873144635,0.5,0.5,0.308172213318232,0.5,0.691381446610119,0.308172213318232,0.5,0.5,0.308172213318232,0.927845421000752,0.917224873144635,0.0827751268553646,0.917224873144635,0.5,0.957348409623145,0.952415847810922,0.0827751268553646,0.0317571387539344,0.5,0.383655573363537,0.99304761091693,1.44629104298988,2.48266941732835,0.5,51.862613348958
CBC_1019,CBC_1019_MSI_AV_v3_Vset4_Aset3_2023-06-28_17h50.15.634.csv,3,25,2,3,b,1,0,1,aud,C,63,1,2C,3C,1,0,b,2.03215799999998,1,0,1,1,2C,3C,C23,2.99573227355399,0.588934312534621,0.5,0.5,0.5,0.5,0.94898201189857,0.5,0.5,0.308172213318232,0.5,0.691381446610119,0.308172213318232,0.5,0.5,0.308172213318232,0.927845421000752,0.834140932337464,0.165859067662536,0.691381446610119,0.308172213318232,0.451337983545361,0.916620985400609,0.308618553389881,0.11840322805142,0.5,0.383655573363537,0.99304761091693,1.44629104298988,2.48266941732835,0.5,51.862613348958
CBC_1019,CBC_1019_MSI_AV_v3_Vset4_Aset3_2023-06-28_17h50.15.634.csv,3,26,2,3,z,0,1,2,aud,D,63,1,2D,3D,0,1,z,1.4924749999991,0,1,1,1,3D,2D,D23,3.71357206670431,0.588934312534621,0.5,0.5,0.5,0.5,0.94898201189857,0.5,0.5,0.308172213318232,0.5,0.809784674661539,0.308172213318232,0.5,0.5,0.308172213318232,0.927845421000752,0.966519318934207,0.033480681065793,0.927845421000752,0.308172213318232,1.01706076386206,0.966189030829026,0.0721545789992485,0.0276825063767613,0.5,0.383655573363537,0.99304761091693,1.44629104298988,2.48266941732835,0.5,51.862613348958
CBC_1019,CBC_1019_MSI_AV_v3_Vset4_Aset3_2023-06-28_17h50.15.634.csv,3,27,0,1,z,0,1,0,aud,B,63,1,0B,1B,0,1,z,2.31944780000049,0,1,1,1,1B,0B,B01,2.63905732961526,0.588934312534621,0.5,0.5,0.5,0.5,0.94898201189857,0.5,0.5,0.308172213318232,0.5,0.809784674661539,0.308172213318232,0.5,0.5,0.308172213318232,0.955527927377513,0.94898201189857,0.0510179881014302,0.94898201189857,0.5,0.288954792546705,0.961455342810173,0.0510179881014302,0.0195733354769083,0.5,0.383655573363537,0.99304761091693,1.44629104298988,2.48266941732835,0.5,51.862613348958
CBC_1019,CBC_1019_MSI_AV_v3_Vset4_Aset3_2023-06-28_17h50.15.634.csv,3,28,0,2,b,1,0,3,aud,A,27,1,0A,2A,1,0,b,2.3355317000005,1,0,1,1,0A,2A,A02,3.76120011569356,0.588934312534621,0.5,0.5,0.5,0.5,0.968555347375478,0.5,0.5,0.308172213318232,0.5,0.809784674661539,0.308172213318232,0.5,0.5,0.308172213318232,0.955527927377513,0.588934312534621,0.411065687465379,0.588934312534621,0.5,0.228751105999282,0.654008733110198,0.411065687465379,0.157707642014606,0.5,0.383655573363537,0.99304761091693,1.44629104298988,2.48266941732835,0.5,51.862613348958
CBC_1019,CBC_1019_MSI_AV_v3_Vset4_Aset3_2023-06-28_17h50.15.634.csv,3,29,1,3,z,0,1,2,aud,D,27,1,1D,3D,0,1,z,1.38920909999979,0,1,1,1,3D,1D,D13,3.09104245335832,0.746641954549228,0.5,0.5,0.5,0.5,0.968555347375478,0.5,0.5,0.308172213318232,0.5,0.809784674661539,0.308172213318232,0.5,0.5,0.308172213318232,0.955527927377513,0.955527927377513,0.0444720726224872,0.955527927377513,0.5,1.03466364338887,0.96355139020913,0.0444720726224872,0.0170619585206452,0.5,0.383655573363537,0.99304761091693,1.44629104298988,2.48266941732835,0.5,51.862613348958
CBC_1019,CBC_1019_MSI_AV_v3_Vset4_Aset3_2023-06-28_17h50.15.634.csv,3,30,1,0,z,0,1,3,aud,A,63,1,1A,0A,0,1,z,1.2232382000002,0,1,1,1,0A,1A,A10,3.11351530921037,0.746641954549228,0.5,0.5,0.5,0.5,0.968555347375478,0.5,0.5,0.308172213318232,0.5,0.809784674661539,0.308172213318232,0.5,0.5,0.308172213318232,0.972589885898158,0.746641954549228,0.253358045450772,0.746641954549228,0.5,0.360460187027332,0.854355144539666,0.253358045450772,0.097202226193681,0.5,0.383655573363537,0.99304761091693,1.44629104298988,2.48266941732835,0.5,51.862613348958
CBC_1019,CBC_1019_MSI_AV_v3_Vset4_Aset3_2023-06-28_17h50.15.634.csv,3,31,2,0,b,1,0,1,aud,C,27,1,2C,0C,1,0,b,1.86285029999999,1,0,1,1,2C,0C,C20,3.8286413964891,0.843844180742909,0.5,0.5,0.5,0.5,0.968555347375478,0.5,0.5,0.308172213318232,0.5,0.809784674661539,0.308172213318232,0.5,0.5,0.308172213318232,0.972589885898158,0.905277499595955,0.0947225004040454,0.809784674661539,0.308172213318232,0.591931655196663,0.948311412374239,0.190215325338461,0.0729771697052589,0.5,0.383655573363537,0.99304761091693,1.44629104298988,2.48266941732835,0.5,51.862613348958
CBC_1019,CBC_1019_MSI_AV_v3_Vset4_Aset3_2023-06-28_17h50.15.634.csv,3,32,2,3,z,0,1,2,aud,D,63,1,2D,3D,0,1,z,1.36424269999952,0,1,1,1,3D,2D,D23,3.15700042115011,0.843844180742909,0.5,0.5,0.5,0.5,0.968555347375478,0.5,0.5,0.308172213318232,0.5,0.882761844366798,0.308172213318232,0.5,0.5,0.308172213318232,0.972589885898158,0.987601805474628,0.012398194525372,0.972589885898158,0.308172213318232,1.09442280059695,0.970777599093959,0.027410114101842,0.0105160430417022,0.5,0.383655573363537,0.99304761091693,1.44629104298988,2.48266941732835,0.5,51.862613348958
CBC_1019,CBC_1019_MSI_AV_v3_Vset4_Aset3_2023-06-28_17h50.15.634.csv,3,33,1,0,b,1,0,0,aud,B,63,1,1B,0B,1,0,b,1.77653400000054,1,0,1,1,1B,0B,B10,2.77258872223978,0.843844180742909,0.5,0.5,0.5,0.5,0.968555347375478,0.5,0.5,0.308172213318232,0.5,0.882761844366798,0.308172213318232,0.5,0.5,0.308172213318232,0.98310592893986,0.968555347375478,0.0314446526245219,0.968555347375478,0.5,0.698863737137345,0.966654793232576,0.0314446526245219,0.0120639162318782,0.5,0.383655573363537,0.99304761091693,1.44629104298988,2.48266941732835,0.5,51.862613348958
CBC_1019,CBC_1019_MSI_AV_v3_Vset4_Aset3_2023-06-28_17h50.15.634.csv,3,34,0,1,b,1,0,3,aud,A,63,1,0A,1A,1,0,b,1.4633963999986,1,0,1,1,0A,1A,A01,2.50552593699074,0.843844180742909,0.5,0.5,0.5,0.5,0.980619263607356,0.5,0.5,0.308172213318232,0.5,0.882761844366798,0.308172213318232,0.5,0.5,0.308172213318232,0.98310592893986,0.843844180742909,0.156155819257091,0.843844180742909,0.5,0.812308902047758,0.921848766466117,0.156155819257091,0.0599100503711322,0.5,0.383655573363537,0.99304761091693,1.44629104298988,2.48266941732835,0.5,51.862613348958
CBC_1019,CBC_1019_MSI_AV_v3_Vset4_Aset3_2023-06-28_17h50.15.634.csv,3,35,2,3,z,0,1,2,aud,D,63,0,2D,3D,1,0,z,2.88611739999942,0,1,1,0,3D,2D,D23,2.81341071676004,0.903754231114041,0.5,0.5,0.5,0.5,0.980619263607356,0.5,0.5,0.308172213318232,0.5,0.882761844366798,0.308172213318232,0.5,0.5,0.308172213318232,0.98310592893986,0.992403426696751,0.00759657330324945,0.98310592893986,0.308172213318232,0.0960501949921748,0.971750325737604,-0.98310592893986,-0.377174068844514,0.5,0.383655573363537,0.99304761091693,1.44629104298988,2.48266941732835,0.5,51.862613348958
CBC_1019,CBC_1019_MSI_AV_v3_Vset4_Aset3_2023-06-28_17h50.15.634.csv,3,36,2,0,b,1,0,1,aud,C,27,1,2C,0C,1,0,b,2.18244529999902,1,0,1,1,2C,0C,C20,3.23867845216438,0.903754231114041,0.5,0.5,0.5,0.5,0.980619263607356,0.5,0.5,0.308172213318232,0.5,0.882761844366798,0.308172213318232,0.5,0.5,0.308172213318232,0.605931860095346,0.94414529846515,0.0558547015348503,0.882761844366798,0.308172213318232,0.362498084272219,0.960526450561655,0.117238155633202,0.0449790718195397,0.5,0.383655573363537,0.99304761091693,1.44629104298988,2.48266941732835,0.5,51.862613348958
CBC_1019,CBC_1019_MSI_AV_v3_Vset4_Aset3_2023-06-28_17h50.15.634.csv,3,37,0,1,b,1,0,3,aud,A,63,1,0A,1A,1,0,b,1.42742510000062,1,0,1,1,0A,1A,A01,2.34180580614733,0.903754231114041,0.5,0.5,0.5,0.5,0.980619263607356,0.5,0.5,0.308172213318232,0.5,0.927740916186338,0.308172213318232,0.5,0.5,0.308172213318232,0.605931860095346,0.903754231114041,0.0962457688859593,0.903754231114041,0.5,0.930112943142654,0.947777356486908,0.0962457688859593,0.0369252256457571,0.5,0.383655573363537,0.99304761091693,1.44629104298988,2.48266941732835,0.5,51.862613348958
CBC_1019,CBC_1019_MSI_AV_v3_Vset4_Aset3_2023-06-28_17h50.15.634.csv,3,38,1,3,b,1,0,0,aud,B,27,1,1B,3B,1,0,b,1.31735229999867,1,0,1,1,1B,3B,B13,3.27714473299218,0.940679456759798,0.5,0.5,0.5,0.5,0.980619263607356,0.5,0.5,0.308172213318232,0.5,0.927740916186338,0.308172213318232,0.5,0.5,0.308172213318232,0.605931860095346,0.980619263607356,0.0193807363926437,0.980619263607356,0.5,1.02401191372448,0.969344965113596,0.0193807363926437,0.00743552753292728,0.5,0.383655573363537,0.99304761091693,1.44629104298988,2.48266941732835,0.5,51.862613348958
CBC_1019,CBC_1019_MSI_AV_v3_Vset4_Aset3_2023-06-28_17h50.15.634.csv,3,39,3,2,z,0,1,1,aud,C,63,1,3C,2C,0,1,z,3.5346101999985,0,1,1,1,2C,3C,C32,2.60268968544438,0.940679456759798,0.5,0.5,0.5,0.5,0.988054791140284,0.5,0.5,0.308172213318232,0.5,0.927740916186338,0.308172213318232,0.5,0.5,0.308172213318232,0.605931860095346,0.966468803066842,0.0335311969331583,0.927740916186338,0.308172213318232,0.0351006552916027,0.966177603679035,0.0722590838136624,0.0277226002312545,0.5,0.383655573363537,0.99304761091693,1.44629104298988,2.48266941732835,0.5,51.862613348958
CBC_1019,CBC_1019_MSI_AV_v3_Vset4_Aset3_2023-06-28_17h50.15.634.csv,3,40,3,2,b,1,0,2,aud,D,63,1,3D,2D,1,0,b,1.61539710000034,1,0,1,1,3D,2D,D32,2.62103882411258,0.940679456759798,0.5,0.5,0.5,0.5,0.988054791140284,0.5,0.5,0.308172213318232,0.5,0.955463516417592,0.308172213318232,0.5,0.5,0.308172213318232,0.605931860095346,0.775376317026931,0.224623682973069,0.605931860095346,0.308172213318232,0.644558275269429,0.878052994085827,0.394068139904654,0.151186438159422,0.5,0.383655573363537,0.99304761091693,1.44629104298988,2.48266941732835,0.5,51.862613348958
CBC_1019,CBC_1019_MSI_AV_v3_Vset4_Aset3_2023-06-28_17h50.15.634.csv,3,41,0,1,z,0,1,0,aud,B,63,1,0B,1B,0,1,z,1.59898009999779,0,1,1,1,1B,0B,B01,2.63905732961526,0.940679456759798,0.5,0.5,0.5,0.5,0.988054791140284,0.5,0.5,0.308172213318232,0.5,0.955463516417592,0.308172213318232,0.5,0.5,0.308172213318232,0.757118298254768,0.988054791140284,0.0119452088597164,0.988054791140284,0.5,0.928271286423183,0.970798821738192,0.0119452088597164,0.00458284595402169,0.5,0.383655573363537,0.99304761091693,1.44629104298988,2.48266941732835,0.5,51.862613348958
CBC_1019,CBC_1019_MSI_AV_v3_Vset4_Aset3_2023-06-28_17h50.15.634.csv,3,42,2,0,z,0,1,3,aud,A,27,1,2A,0A,0,1,z,2.31304269999782,0,1,1,1,0A,2A,A20,3.3499040872746,0.940679456759798,0.5,0.5,0.5,0.5,0.992637637094305,0.5,0.5,0.308172213318232,0.5,0.955463516417592,0.308172213318232,0.5,0.5,0.308172213318232,0.757118298254768,0.940679456759798,0.0593205432402022,0.940679456759798,0.5,0.29498601253994,0.959339130028459,0.0593205432402022,0.0227586570290562,0.5,0.383655573363537,0.99304761091693,1.44629104298988,2.48266941732835,0.5,51.862613348958
CBC_1019,CBC_1019_MSI_AV_v3_Vset4_Aset3_2023-06-28_17h50.15.634.csv,3,43,3,0,b,1,0,2,aud,D,9,1,3D,0D,1,0,b,1.58661599999868,1,0,1,1,3D,0D,D30,4.06044301054642,0.963438113788854,0.5,0.5,0.5,0.5,0.992637637094305,0.5,0.5,0.308172213318232,0.5,0.955463516417592,0.308172213318232,0.5,0.5,0.308172213318232,0.757118298254768,0.757118298254768,0.242881701745232,0.757118298254768,0.5,0.631708659759971,0.863731293631274,0.242881701745232,0.0931829185425783,0.5,0.383655573363537,0.99304761091693,1.44629104298988,2.48266941732835,0.5,51.862613348958
CBC_1019,CBC_1019_MSI_AV_v3_Vset4_Aset3_2023-06-28_17h50.15.634.csv,3,44,3,2,z,0,1,1,aud,C,63,1,3C,2C,0,1,b,3.68961820000004,1,0,0,0,3C,2C,C32,2.46809953147162,0.963438113788854,0.5,0.5,0.5,0.5,0.992637637094305,0.5,0.5,0.308172213318232,0.5,0.955463516417592,0.308172213318232,0.5,0.5,0.308172213318232,0.850301216797347,0.0203409965431412,0.979659003456859,0.308172213318232,0.955463516417592,0.000778830869020226,0.0308257010161094,-0.308172213318232,-0.118231987195316,0.5,0.383655573363537,0.99304761091693,1.44629104298988,2.48266941732835,0.5,51.862613348958
CBC_1019,CBC_1019_MSI_TV_v3_Vset1_Tset3_2023-06-28_18h00.13.129.csv,4,1,0,1,z,0,1,0,tac,B,63,1,0B,1B,0,1,b,2.3024619,1,0,0,0,0B,1B,B01,2.77258872223978,0.5,0.5,0.5,0.5,0.5,0.5,0.5,0.5,0.5,0.5,0.5,0.5,0.5,0.5,0.5,0.5,0.5,0.5,0.5,0.5,0.14878429627411,0.500007679223743,-0.5,-0.117083939885238,0.5,0.234167879770476,0.802180528484515,1.64133276323371,3.15708284796591,0.5,63.3931219243117
CBC_1019,CBC_1019_MSI_TV_v3_Vset1_Tset3_2023-06-28_18h00.13.129.csv,4,2,0,1,b,1,0,3,tac,A,63,1,0A,1A,1,0,b,2.6774856,1,0,1,1,0A,1A,A01,2.83321334405622,0.5,0.5,0.5,0.5,0.382916060114762,0.5,0.5,0.5,0.5,0.5,0.5,0.5,0.5,0.5,0.5,0.5,0.5,0.5,0.5,0.5,0.124530308241739,0.500810441900935,0.5,0.117083939885238,0.5,0.234167879770476,0.802180528484515,1.64133276323371,3.15708284796591,0.5,63.3931219243117
CBC_1019,CBC_1019_MSI_TV_v3_Vset1_Tset3_2023-06-28_18h00.13.129.csv,4,3,2,3,z,0,1,2,tac,D,63,1,2D,3D,0,1,b,2.57605,1,0,0,0,2D,3D,D23,2.89037175789616,0.617083939885238,0.5,0.5,0.5,0.382916060114762,0.5,0.5,0.5,0.5,0.5,0.5,0.5,0.5,0.5,0.5,0.5,0.5,0.5,0.5,0.5,0.130332698888185,0.498912689612502,-0.5,-0.117083939885238,0.5,0.234167879770476,0.802180528484515,1.64133276323371,3.15708284796591,0.5,63.3931219243117
CBC_1019,CBC_1019_MSI_TV_v3_Vset1_Tset3_2023-06-28_18h00.13.129.csv,4,4,2,1,z,0,1,0,tac,B,9,1,2B,1B,0,1,b,2.5355877,1,0,0,0,2B,1B,B21,2.94443897916644,0.617083939885238,0.5,0.5,0.5,0.382916060114762,0.5,0.5,0.5,0.5,0.5,0.5,0.5,0.5,0.5,0.382916060114762,0.5,0.5,0.5,0.5,0.5,0.132958534949977,0.499101630993022,-0.5,-0.117083939885238,0.5,0.234167879770476,0.802180528484515,1.64133276323371,3.15708284796591,0.5,63.3931219243117
CBC_1019,CBC_1019_MSI_TV_v3_Vset1_Tset3_2023-06-28_18h00.13.129.csv,4,5,0,2,b,1,0,3,tac,A,27,1,0A,2A,1,0,b,2.6058723,1,0,1,1,0A,2A,A02,2.99573227355399,0.617083939885238,0.5,0.5,0.5,0.382916060114762,0.5,0.382916060114762,0.5,0.5,0.5,0.5,0.5,0.5,0.5,0.382916060114762,0.5,0.617083939885238,0.382916060114762,0.617083939885238,0.5,0.206726245463616,0.770972967963322,0.382916060114762,0.089666641927138,0.5,0.234167879770476,0.802180528484515,1.64133276323371,3.15708284796591,0.5,63.3931219243117
CBC_1019,CBC_1019_MSI_TV_v3_Vset1_Tset3_2023-06-28_18h00.13.129.csv,4,6,2,3,b,1,0,1,tac,C,63,1,2C,3C,1,0,z,2.5756628,0,1,0,0,3C,2C,C23,3.04452243772342,0.706750581812376,0.5,0.5,0.5,0.382916060114762,0.5,0.382916060114762,0.5,0.5,0.5,0.5,0.5,0.5,0.5,0.382916060114762,0.5,0.5,0.5,0.5,0.5,0.130450687654126,0.499270863402273,-0.5,-0.117083939885238,0.5,0.234167879770476,0.802180528484515,1.64133276323371,3.15708284796591,0.5,63.3931219243117
CBC_1019,CBC_1019_MSI_TV_v3_Vset1_Tset3_2023-06-28_18h00.13.129.csv,4,7,1,3,z,0,1,2,tac,D,27,1,1D,3D,0,1,z,2.9212902,0,1,1,1,3D,1D,D13,3.09104245335832,0.706750581812376,0.5,0.5,0.5,0.382916060114762,0.5,0.382916060114762,0.5,0.5,0.5,0.5,0.382916060114762,0.5,0.5,0.382916060114762,0.5,0.5,0.5,0.5,0.5,0.1103334671897,0.500090631298857,0.5,0.117083939885238,0.5,0.234167879770476,0.802180528484515,1.64133276323371,3.15708284796591,0.5,63.3931219243117
CBC_1019,CBC_1019_MSI_TV_v3_Vset1_Tset3_2023-06-28_18h00.13.129.csv,4,8,1,0,z,0,1,3,tac,A,63,1,1A,0A,0,1,z,1.3729785,0,1,1,1,0A,1A,A10,3.13549421592915,0.706750581812376,0.5,0.5,0.5,0.382916060114762,0.5,0.382916060114762,0.5,0.5,0.5,0.5,0.382916060114762,0.5,0.5,0.382916060114762,0.617083939885238,0.706750581812376,0.293249418187624,0.706750581812376,0.5,0.420938685201377,0.894717825500112,0.293249418187624,0.0686695945009216,0.5,0.234167879770476,0.802180528484515,1.64133276323371,3.15708284796591,0.5,63.3931219243117
CBC_1019,CBC_1019_MSI_TV_v3_Vset1_Tset3_2023-06-28_18h00.13.129.csv,4,9,2,0,b,1,0,1,tac,C,27,1,2C,0C,1,0,b,2.5243611,1,0,1,1,2C,0C,C20,3.17805383034795,0.775420176313298,0.5,0.5,0.5,0.382916060114762,0.5,0.382916060114762,0.5,0.5,0.5,0.5,0.382916060114762,0.5,0.5,0.382916060114762,0.617083939885238,0.5,0.5,0.5,0.5,0.134001685455296,0.500300846866489,0.5,0.117083939885238,0.5,0.234167879770476,0.802180528484515,1.64133276323371,3.15708284796591,0.5,63.3931219243117
CBC_1019,CBC_1019_MSI_TV_v3_Vset1_Tset3_2023-06-28_18h00.13.129.csv,4,10,2,3,z,0,1,2,tac,D,63,1,2D,3D,0,1,z,2.4674078,0,1,1,1,3D,2D,D23,2.52572864430826,0.775420176313298,0.5,0.5,0.5,0.382916060114762,0.5,0.382916060114762,0.5,0.5,0.5,0.617083939885238,0.382916060114762,0.5,0.5,0.382916060114762,0.617083939885238,0.721994880218243,0.278005119781757,0.617083939885238,0.382916060114762,0.279297195544689,0.908563833026943,0.382916060114762,0.089666641927138,0.5,0.234167879770476,0.802180528484515,1.64133276323371,3.15708284796591,0.5,63.3931219243117
CBC_1019,CBC_1019_MSI_TV_v3_Vset1_Tset3_2023-06-28_18h00.13.129.csv,4,11,1,0,b,1,0,0,tac,B,63,0,1B,0B,0,1,b,2.037069,1,0,1,0,1B,0B,B10,3.25809653802148,0.775420176313298,0.5,0.5,0.5,0.382916060114762,0.5,0.382916060114762,0.5,0.5,0.5,0.617083939885238,0.382916060114762,0.5,0.5,0.382916060114762,0.706750581812376,0.617083939885238,0.382916060114762,0.5,0.382916060114762,0.279585856456144,0.770304966090582,-0.5,-0.117083939885238,0.5,0.234167879770476,0.802180528484515,1.64133276323371,3.15708284796591,0.5,63.3931219243117
CBC_1019,CBC_1019_MSI_TV_v3_Vset1_Tset3_2023-06-28_18h00.13.129.csv,4,12,0,1,b,1,0,3,tac,A,63,1,0A,1A,1,0,b,1.6263769,1,0,1,1,0A,1A,A01,2.60268968544438,0.775420176313298,0.5,0.5,0.5,0.382916060114762,0.382916060114762,0.382916060114762,0.5,0.5,0.5,0.617083939885238,0.382916060114762,0.5,0.5,0.382916060114762,0.706750581812376,0.775420176313298,0.224579823686702,0.775420176313298,0.5,0.551746188316797,0.945366876091098,0.224579823686702,0.0525893811519425,0.5,0.234167879770476,0.802180528484515,1.64133276323371,3.15708284796591,0.5,63.3931219243117
CBC_1019,CBC_1019_MSI_TV_v3_Vset1_Tset3_2023-06-28_18h00.13.129.csv,4,13,2,3,z,0,1,2,tac,D,63,1,2D,3D,0,1,z,2.2609267,0,1,1,1,3D,2D,D23,2.23359222150709,0.82800955746524,0.5,0.5,0.5,0.382916060114762,0.382916060114762,0.382916060114762,0.5,0.5,0.5,0.617083939885238,0.382916060114762,0.5,0.5,0.382916060114762,0.706750581812376,0.7952462170466,0.2047537829534,0.706750581812376,0.382916060114762,0.353015895263427,0.955288288021297,0.293249418187624,0.0686695945009216,0.5,0.234167879770476,0.802180528484515,1.64133276323371,3.15708284796591,0.5,63.3931219243117
CBC_1019,CBC_1019_MSI_TV_v3_Vset1_Tset3_2023-06-28_18h00.13.129.csv,4,14,2,0,b,1,0,1,tac,C,27,1,2C,0C,1,0,b,3.5527193,1,0,1,1,2C,0C,C20,2.67414864942653,0.82800955746524,0.5,0.5,0.5,0.382916060114762,0.382916060114762,0.382916060114762,0.5,0.5,0.5,0.617083939885238,0.382916060114762,0.5,0.5,0.382916060114762,0.775420176313298,0.617083939885238,0.382916060114762,0.617083939885238,0.5,0.120889955776186,0.77090893102734,0.382916060114762,0.089666641927138,0.5,0.234167879770476,0.802180528484515,1.64133276323371,3.15708284796591,0.5,63.3931219243117
CBC_1019,CBC_1019_MSI_TV_v3_Vset1_Tset3_2023-06-28_18h00.13.129.csv,4,15,0,1,b,1,0,3,tac,A,63,1,0A,1A,1,0,b,1.7953932,1,0,1,1,0A,1A,A01,2.30258509299405,0.82800955746524,0.5,0.5,0.5,0.382916060114762,0.382916060114762,0.382916060114762,0.5,0.5,0.5,0.706750581812376,0.382916060114762,0.5,0.5,0.382916060114762,0.775420176313298,0.82800955746524,0.17199044253476,0.82800955746524,0.5,0.558295374887061,0.967678213008047,0.17199044253476,0.0402746372691507,0.5,0.234167879770476,0.802180528484515,1.64133276323371,3.15708284796591,0.5,63.3931219243117
CBC_1019,CBC_1019_MSI_TV_v3_Vset1_Tset3_2023-06-28_18h00.13.129.csv,4,16,1,3,b,1,0,0,tac,B,27,1,1B,3B,1,0,b,3.3852924,1,0,1,1,1B,3B,B13,3.43398720448515,0.868284194734391,0.5,0.5,0.5,0.382916060114762,0.382916060114762,0.382916060114762,0.5,0.5,0.5,0.706750581812376,0.382916060114762,0.5,0.5,0.382916060114762,0.775420176313298,0.382916060114762,0.617083939885238,0.382916060114762,0.5,0.0395447415489093,0.229263311962677,0.617083939885238,0.144501237843338,0.5,0.234167879770476,0.802180528484515,1.64133276323371,3.15708284796591,0.5,63.3931219243117
CBC_1019,CBC_1019_MSI_TV_v3_Vset1_Tset3_2023-06-28_18h00.13.129.csv,4,17,3,2,z,0,1,1,tac,C,63,1,3C,2C,0,1,b,2.3441867,1,0,0,0,3C,2C,C32,3.46573590279973,0.868284194734391,0.5,0.5,0.5,0.382916060114762,0.5274172979581,0.382916060114762,0.5,0.5,0.5,0.706750581812376,0.382916060114762,0.5,0.5,0.382916060114762,0.775420176313298,0.2047537829534,0.7952462170466,0.382916060114762,0.706750581812376,0.0152239423516264,0.0445314517635828,-0.382916060114762,-0.089666641927138,0.5,0.234167879770476,0.802180528484515,1.64133276323371,3.15708284796591,0.5,63.3931219243117
CBC_1019,CBC_1019_MSI_TV_v3_Vset1_Tset3_2023-06-28_18h00.13.129.csv,4,18,2,3,z,0,1,2,tac,D,63,0,2D,3D,1,0,z,2.4753489,0,1,1,0,3D,2D,D23,2.11021320034659,0.868284194734391,0.5,0.5,0.5,0.382916060114762,0.5274172979581,0.382916060114762,0.5,0.5,0.5,0.706750581812376,0.293249418187624,0.5,0.5,0.382916060114762,0.775420176313298,0.847659787083953,0.152340212916047,0.775420176313298,0.382916060114762,0.279384397171246,0.973511858820478,-0.775420176313298,-0.181578498618534,0.5,0.234167879770476,0.802180528484515,1.64133276323371,3.15708284796591,0.5,63.3931219243117
CBC_1019,CBC_1019_MSI_TV_v3_Vset1_Tset3_2023-06-28_18h00.13.129.csv,4,19,1,0,b,1,0,0,tac,B,63,1,1B,0B,1,0,b,1.6834246,1,0,1,1,1B,0B,B10,2.83321334405622,0.868284194734391,0.5,0.5,0.5,0.382916060114762,0.5274172979581,0.382916060114762,0.5,0.5,0.5,0.706750581812376,0.293249418187624,0.5,0.5,0.382916060114762,0.593841677694764,0.642669292639434,0.357330707360566,0.5274172979581,0.382916060114762,0.351767330163261,0.814033009393361,0.4725827020419,0.110663689353354,0.5,0.234167879770476,0.802180528484515,1.64133276323371,3.15708284796591,0.5,63.3931219243117
CBC_1019,CBC_1019_MSI_TV_v3_Vset1_Tset3_2023-06-28_18h00.13.129.csv,4,20,2,0,z,0,1,3,tac,A,27,1,2A,0A,0,1,z,1.2793285,0,1,1,1,0A,2A,A20,3.55534806148941,0.868284194734391,0.5,0.5,0.5,0.382916060114762,0.638080987311454,0.382916060114762,0.5,0.5,0.5,0.706750581812376,0.293249418187624,0.5,0.5,0.382916060114762,0.593841677694764,0.868284194734391,0.131715805265609,0.868284194734391,0.5,0.667904298911619,0.978499615166181,0.131715805265609,0.0308436108513086,0.5,0.234167879770476,0.802180528484515,1.64133276323371,3.15708284796591,0.5,63.3931219243117
CBC_1019,CBC_1019_MSI_TV_v3_Vset1_Tset3_2023-06-28_18h00.13.129.csv,4,21,0,3,z,0,1,2,tac,D,9,1,0D,3D,0,1,z,2.1857573,0,1,1,1,3D,0D,D03,3.58351893845611,0.899127805585699,0.5,0.5,0.5,0.382916060114762,0.638080987311454,0.382916060114762,0.5,0.5,0.5,0.706750581812376,0.293249418187624,0.5,0.5,0.382916060114762,0.593841677694764,0.593841677694764,0.406158322305236,0.593841677694764,0.5,0.238741583112194,0.725173823863572,0.406158322305236,0.0951092331853508,0.5,0.234167879770476,0.802180528484515,1.64133276323371,3.15708284796591,0.5,63.3931219243117
CBC_1019,CBC_1019_MSI_TV_v3_Vset1_Tset3_2023-06-28_18h00.13.129.csv,4,22,2,3,b,1,0,1,tac,C,63,1,2C,3C,1,0,b,2.6993144,1,0,1,1,2C,3C,C23,2.91777073208428,0.899127805585699,0.5,0.5,0.5,0.382916060114762,0.638080987311454,0.382916060114762,0.5,0.5,0.5,0.706750581812376,0.293249418187624,0.5,0.5,0.382916060114762,0.688950910880115,0.853123050163846,0.146876949836154,0.706750581812376,0.293249418187624,0.214134248212458,0.975014514019542,0.293249418187624,0.0686695945009216,0.5,0.234167879770476,0.802180528484515,1.64133276323371,3.15708284796591,0.5,63.3931219243117
CBC_1019,CBC_1019_MSI_TV_v3_Vset1_Tset3_2023-06-28_18h00.13.129.csv,4,23,3,1,z,0,1,0,tac,B,27,1,3B,1B,0,1,z,2.304894,0,1,1,1,1B,3B,B31,3.63758615972639,0.899127805585699,0.5,0.5,0.5,0.382916060114762,0.638080987311454,0.382916060114762,0.5,0.5,0.5,0.775420176313298,0.293249418187624,0.5,0.5,0.382916060114762,0.688950910880115,0.638080987311454,0.361919012688546,0.638080987311454,0.5,0.260578464424544,0.807285220658004,0.361919012688546,0.0847498078499007,0.5,0.234167879770476,0.802180528484515,1.64133276323371,3.15708284796591,0.5,63.3931219243117
CBC_1019,CBC_1019_MSI_TV_v3_Vset1_Tset3_2023-06-28_18h00.13.129.csv,4,24,3,2,z,0,1,1,tac,C,63,1,3C,2C,0,1,z,2.3873498,0,1,1,1,2C,3C,C32,2.9704144655697,0.899127805585699,0.5,0.5,0.5,0.382916060114762,0.722830795161355,0.382916060114762,0.5,0.5,0.5,0.775420176313298,0.293249418187624,0.5,0.5,0.382916060114762,0.688950910880115,0.892719752214502,0.107280247785498,0.775420176313298,0.293249418187624,0.293205708416828,0.983165645657611,0.224579823686702,0.0525893811519425,0.5,0.234167879770476,0.802180528484515,1.64133276323371,3.15708284796591,0.5,63.3931219243117
CBC_1019,CBC_1019_MSI_TV_v3_Vset1_Tset3_2023-06-28_18h00.13.129.csv,4,25,2,3,z,0,1,2,tac,D,63,1,2D,3D,0,1,z,2.3175106,0,1,1,1,3D,2D,D23,2.07944154167984,0.899127805585699,0.5,0.5,0.5,0.382916060114762,0.722830795161355,0.382916060114762,0.5,0.5,0.5,0.82800955746524,0.293249418187624,0.5,0.5,0.382916060114762,0.688950910880115,0.781154771080415,0.218845228919585,0.688950910880115,0.382916060114762,0.332622912723575,0.948535026227028,0.311049089119885,0.0728377057037414,0.5,0.234167879770476,0.802180528484515,1.64133276323371,3.15708284796591,0.5,63.3931219243117
CBC_1019,CBC_1019_MSI_TV_v3_Vset1_Tset3_2023-06-28_18h00.13.129.csv,4,26,1,0,b,1,0,0,tac,B,63,1,1B,0B,1,0,b,3.5240417,1,0,1,1,1B,0B,B10,2.6149597780362,0.899127805585699,0.5,0.5,0.5,0.382916060114762,0.722830795161355,0.382916060114762,0.5,0.5,0.5,0.82800955746524,0.293249418187624,0.5,0.5,0.382916060114762,0.761788616583856,0.807793517532528,0.192206482467472,0.722830795161355,0.382916060114762,0.100726711675462,0.960317487331918,0.277169204838645,0.0649041250347343,0.5,0.234167879770476,0.802180528484515,1.64133276323371,3.15708284796591,0.5,63.3931219243117
CBC_1019,CBC_1019_MSI_TV_v3_Vset1_Tset3_2023-06-28_18h00.13.129.csv,4,27,0,3,b,1,0,3,tac,A,9,1,0A,3A,1,0,b,1.144349,1,0,1,1,0A,3A,A03,3.73766961828337,0.899127805585699,0.5,0.5,0.5,0.382916060114762,0.787734920196089,0.382916060114762,0.5,0.5,0.5,0.82800955746524,0.293249418187624,0.5,0.5,0.382916060114762,0.761788616583856,0.899127805585699,0.100872194414301,0.899127805585699,0.5,0.485941372665839,0.984217213869733,0.100872194414301,0.0236210278937921,0.5,0.234167879770476,0.802180528484515,1.64133276323371,3.15708284796591,0.5,63.3931219243117
CBC_1019,CBC_1019_MSI_TV_v3_Vset1_Tset3_2023-06-28_18h00.13.129.csv,4,28,2,3,z,0,1,2,tac,D,63,1,2D,3D,0,1,z,2.4462701,0,1,1,1,3D,2D,D23,1.96944064646551,0.922748833479491,0.5,0.5,0.5,0.382916060114762,0.787734920196089,0.382916060114762,0.5,0.5,0.5,0.82800955746524,0.293249418187624,0.5,0.5,0.382916060114762,0.761788616583856,0.837494102017911,0.162505897982089,0.761788616583856,0.382916060114762,0.291303201931973,0.970701618565501,0.238211383416144,0.0557814545917504,0.5,0.234167879770476,0.802180528484515,1.64133276323371,3.15708284796591,0.5,63.3931219243117
CBC_1019,CBC_1019_MSI_TV_v3_Vset1_Tset3_2023-06-28_18h00.13.129.csv,4,29,2,0,b,1,0,1,tac,C,27,1,2C,0C,1,0,b,2.1984098,1,0,1,1,2C,0C,C20,2.68557734525015,0.922748833479491,0.5,0.5,0.5,0.382916060114762,0.787734920196089,0.382916060114762,0.5,0.5,0.5,0.82800955746524,0.293249418187624,0.5,0.5,0.382916060114762,0.817570071175606,0.82800955746524,0.17199044253476,0.82800955746524,0.5,0.380051170590652,0.967761517332295,0.17199044253476,0.0402746372691507,0.5,0.234167879770476,0.802180528484515,1.64133276323371,3.15708284796591,0.5,63.3931219243117
CBC_1019,CBC_1019_MSI_TV_v3_Vset1_Tset3_2023-06-28_18h00.13.129.csv,4,30,1,0,z,0,1,3,tac,A,63,0,1A,0A,1,0,z,1.8848253,0,1,1,0,0A,1A,A10,3.11351530921037,0.922748833479491,0.5,0.5,0.5,0.382916060114762,0.787734920196089,0.382916060114762,0.5,0.5,0.5,0.868284194734391,0.293249418187624,0.5,0.5,0.382916060114762,0.817570071175606,0.922748833479491,0.0772511665205087,0.922748833479491,0.5,0.557392421935512,0.987663919467617,-0.922748833479491,-0.216078137896573,0.5,0.234167879770476,0.802180528484515,1.64133276323371,3.15708284796591,0.5,63.3931219243117
CBC_1019,CBC_1019_MSI_TV_v3_Vset1_Tset3_2023-06-28_18h00.13.129.csv,4,31,1,0,b,1,0,0,tac,B,63,1,1B,0B,1,0,b,1.6043737,1,0,1,1,1B,0B,B10,2.4423470353692,0.706670695582919,0.5,0.5,0.5,0.382916060114762,0.787734920196089,0.382916060114762,0.5,0.5,0.5,0.868284194734391,0.293249418187624,0.5,0.5,0.382916060114762,0.817570071175606,0.856745117907794,0.143254882092206,0.787734920196089,0.382916060114762,0.679660986040632,0.975838264558243,0.212265079803911,0.0497056636869927,0.5,0.234167879770476,0.802180528484515,1.64133276323371,3.15708284796591,0.5,63.3931219243117
CBC_1019,CBC_1019_MSI_TV_v3_Vset1_Tset3_2023-06-28_18h00.13.129.csv,4,32,3,1,b,1,0,2,tac,D,27,1,3D,1D,1,0,b,2.2580061,1,0,1,1,3D,1D,D31,3.85014760171006,0.706670695582919,0.5,0.5,0.5,0.382916060114762,0.837440583883082,0.382916060114762,0.5,0.5,0.5,0.868284194734391,0.293249418187624,0.5,0.5,0.382916060114762,0.817570071175606,0.817570071175606,0.182429928824394,0.817570071175606,0.5,0.356916569547937,0.964145817324929,0.182429928824394,0.0427192296394871,0.5,0.234167879770476,0.802180528484515,1.64133276323371,3.15708284796591,0.5,63.3931219243117
CBC_1019,CBC_1019_MSI_TV_v3_Vset1_Tset3_2023-06-28_18h00.13.129.csv,4,33,3,2,z,0,1,1,tac,C,63,1,3C,2C,0,1,z,2.3263371,0,1,1,1,2C,3C,C32,2.77258872223978,0.706670695582919,0.5,0.5,0.5,0.382916060114762,0.837440583883082,0.382916060114762,0.5,0.5,0.5,0.868284194734391,0.293249418187624,0.5,0.5,0.382916060114762,0.860289300815093,0.940784277707069,0.0592157222929309,0.868284194734391,0.293249418187624,0.293175253623665,0.989685227217538,0.131715805265609,0.0308436108513086,0.5,0.234167879770476,0.802180528484515,1.64133276323371,3.15708284796591,0.5,63.3931219243117
CBC_1019,CBC_1019_MSI_TV_v3_Vset1_Tset3_2023-06-28_18h00.13.129.csv,4,34,1,0,b,1,0,0,tac,B,63,1,1B,0B,1,0,b,2.2942504,1,0,1,1,1B,0B,B10,2.28238238567653,0.706670695582919,0.5,0.5,0.5,0.382916060114762,0.837440583883082,0.382916060114762,0.5,0.5,0.5,0.899127805585699,0.293249418187624,0.5,0.5,0.382916060114762,0.860289300815093,0.892496194502074,0.107503805497926,0.837440583883082,0.382916060114762,0.330836206267449,0.98317789131641,0.162559416116918,0.0380661938088252,0.5,0.234167879770476,0.802180528484515,1.64133276323371,3.15708284796591,0.5,63.3931219243117
CBC_1019,CBC_1019_MSI_TV_v3_Vset1_Tset3_2023-06-28_18h00.13.129.csv,4,35,0,1,b,1,0,3,tac,A,63,1,0A,1A,1,0,b,0.9883907,1,0,1,1,0A,1A,A01,2.52572864430826,0.706670695582919,0.5,0.5,0.5,0.382916060114762,0.875506777691907,0.382916060114762,0.5,0.5,0.5,0.899127805585699,0.293249418187624,0.5,0.5,0.382916060114762,0.860289300815093,0.706670695582919,0.293329304417081,0.706670695582919,0.5,0.0271474588775859,0.894368379612209,0.293329304417081,0.0686883012898964,0.5,0.234167879770476,0.802180528484515,1.64133276323371,3.15708284796591,0.5,63.3931219243117
CBC_1019,CBC_1019_MSI_TV_v3_Vset1_Tset3_2023-06-28_18h00.13.129.csv,4,36,1,2,z,0,1,1,tac,C,9,1,1C,2C,0,1,z,2.569847,0,1,1,1,2C,1C,C12,3.93182563272433,0.775358996872815,0.5,0.5,0.5,0.382916060114762,0.875506777691907,0.382916060114762,0.5,0.5,0.5,0.899127805585699,0.293249418187624,0.5,0.5,0.382916060114762,0.860289300815093,0.899127805585699,0.100872194414301,0.899127805585699,0.5,0.227102400477586,0.984328438443633,0.100872194414301,0.0236210278937921,0.5,0.234167879770476,0.802180528484515,1.64133276323371,3.15708284796591,0.5,63.3931219243117
CBC_1019,CBC_1019_MSI_TV_v3_Vset1_Tset3_2023-06-28_18h00.13.129.csv,4,37,1,0,z,0,1,3,tac,A,63,1,1A,0A,0,1,z,1.873662,0,1,1,1,0A,1A,A10,2.85263142991332,0.775358996872815,0.5,0.5,0.5,0.382916060114762,0.875506777691907,0.382916060114762,0.5,0.5,0.5,0.922748833479491,0.293249418187624,0.5,0.5,0.382916060114762,0.860289300815093,0.775358996872815,0.224641003127185,0.775358996872815,0.5,0.476855685162829,0.945345623405487,0.224641003127185,0.0526037074118057,0.5,0.234167879770476,0.802180528484515,1.64133276323371,3.15708284796591,0.5,63.3931219243117
CBC_1019,CBC_1019_MSI_TV_v3_Vset1_Tset3_2023-06-28_18h00.13.129.csv,4,38,3,1,b,1,0,2,tac,D,27,1,3D,1D,1,0,b,2.7315329,1,0,1,1,3D,1D,D31,3.27714473299218,0.827962704284621,0.5,0.5,0.5,0.382916060114762,0.875506777691907,0.382916060114762,0.5,0.5,0.5,0.922748833479491,0.293249418187624,0.5,0.5,0.382916060114762,0.860289300815093,0.860289300815093,0.139710699184907,0.860289300815093,0.5,0.203265481355239,0.976614251755119,0.139710699184907,0.0327157582093803,0.5,0.234167879770476,0.802180528484515,1.64133276323371,3.15708284796591,0.5,63.3931219243117
CBC_1019,CBC_1019_MSI_TV_v3_Vset1_Tset3_2023-06-28_18h00.13.129.csv,4,39,0,1,z,0,1,0,tac,B,63,1,0B,1B,0,1,z,1.2661621,0,1,1,1,1B,0B,B01,3.29583686600433,0.827962704284621,0.5,0.5,0.5,0.382916060114762,0.875506777691907,0.382916060114762,0.5,0.5,0.5,0.922748833479491,0.293249418187624,0.5,0.5,0.382916060114762,0.893005059024474,0.918918370621021,0.0810816293789786,0.875506777691907,0.382916060114762,0.767559739308634,0.987117111204877,0.124493222308093,0.0291523139136806,0.5,0.234167879770476,0.802180528484515,1.64133276323371,3.15708284796591,0.5,63.3931219243117
CBC_1019,CBC_1019_MSI_TV_v3_Vset1_Tset3_2023-06-28_18h00.13.129.csv,4,40,2,3,b,1,0,1,tac,C,63,0,2C,3C,0,1,b,2.5286731,1,0,1,0,2C,3C,C23,2.90872089656436,0.827962704284621,0.5,0.5,0.5,0.382916060114762,0.904659091605588,0.382916060114762,0.5,0.5,0.5,0.922748833479491,0.293249418187624,0.5,0.5,0.382916060114762,0.893005059024474,0.966429134376202,0.0335708656237982,0.922748833479491,0.293249418187624,0.198138846821252,0.992093355969251,-0.922748833479491,-0.216078137896573,0.5,0.234167879770476,0.802180528484515,1.64133276323371,3.15708284796591,0.5,63.3931219243117
CBC_1019,CBC_1019_MSI_TV_v3_Vset1_Tset3_2023-06-28_18h00.13.129.csv,4,41,2,0,z,0,1,3,tac,A,27,1,2A,0A,0,1,z,1.836847,0,1,1,1,0A,2A,A20,3.3322045101752,0.827962704284621,0.5,0.5,0.5,0.382916060114762,0.904659091605588,0.382916060114762,0.5,0.5,0.5,0.706670695582919,0.293249418187624,0.5,0.5,0.382916060114762,0.893005059024474,0.827962704284621,0.172037295715379,0.827962704284621,0.5,0.538823425321559,0.967607773147566,0.172037295715379,0.0402856087791167,0.5,0.234167879770476,0.802180528484515,1.64133276323371,3.15708284796591,0.5,63.3931219243117
CBC_1019,CBC_1019_MSI_TV_v3_Vset1_Tset3_2023-06-28_18h00.13.129.csv,4,42,3,2,b,1,0,2,tac,D,63,1,3D,2D,1,0,b,2.5341692,1,0,1,1,3D,2D,D32,4.04305126783455,0.868248313063738,0.5,0.5,0.5,0.382916060114762,0.904659091605588,0.382916060114762,0.5,0.5,0.5,0.706670695582919,0.293249418187624,0.5,0.5,0.382916060114762,0.893005059024474,0.930797190542225,0.0692028094577748,0.893005059024474,0.382916060114762,0.219520440287448,0.988683891318372,0.106994940975526,0.0250547784744062,0.5,0.234167879770476,0.802180528484515,1.64133276323371,3.15708284796591,0.5,63.3931219243117
CBC_1019,CBC_1019_MSI_TV_v3_Vset1_Tset3_2023-06-28_18h00.13.129.csv,4,43,3,1,z,0,1,0,tac,B,27,1,3B,1B,0,1,z,1.4314789,0,1,1,1,1B,3B,B31,3.36729582998647,0.868248313063738,0.5,0.5,0.5,0.382916060114762,0.904659091605588,0.382916060114762,0.5,0.5,0.5,0.706670695582919,0.293249418187624,0.5,0.5,0.382916060114762,0.91805983749888,0.904659091605588,0.0953409083944121,0.904659091605588,0.5,0.813474734726024,0.985099147719109,0.0953409083944121,0.0223257783741107,0.5,0.234167879770476,0.802180528484515,1.64133276323371,3.15708284796591,0.5,63.3931219243117
CBC_1019,CBC_1019_MSI_TV_v3_Vset1_Tset3_2023-06-28_18h00.13.129.csv,4,44,2,3,b,1,0,1,tac,C,63,1,2C,3C,1,0,b,2.9462026,1,0,1,1,2C,3C,C23,2.69124308278583,0.868248313063738,0.5,0.5,0.5,0.382916060114762,0.926984869979699,0.382916060114762,0.5,0.5,0.5,0.706670695582919,0.293249418187624,0.5,0.5,0.382916060114762,0.91805983749888,0.853074748908957,0.146925251091043,0.706670695582919,0.293249418187624,0.160730791666599,0.974961647837825,0.293329304417081,0.0686883012898964,0.5,0.234167879770476,0.802180528484515,1.64133276323371,3.15708284796591,0.5,63.3931219243117
